,correct,duration,exp_stage,onset,response,rotation,rt,secondary_responses,secondary_rts,stim_file,stim_index,trialnum,subjid,correct_shift,community,community_cross,steps_within_community,steps_since_seen
0,False,1.5,structure_learning,2.01609110832,-1,0,-1.0,[],[],images/7.png,0,1,CH,,0,,1,0
1,False,1.5,structure_learning,3.5291621685,rot,0,0.337775945663,[],[],images/8.png,1,2,CH,False,0,False,2,0
2,True,1.5,structure_learning,5.03434205055,unrot,0,0.211347818375,[],[],images/7.png,0,3,CH,False,0,False,3,2
3,False,1.5,structure_learning,6.53978204727,rot,0,0.160049915314,[],[],images/8.png,1,4,CH,True,0,False,4,2
4,False,1.5,structure_learning,8.04491305351,rot,0,1.39469099045,[],[],images/9.png,2,5,CH,False,0,False,5,0
5,False,1.5,structure_learning,9.5502281189,-1,0,-1.0,[],[],images/2.png,4,6,CH,False,0,False,6,0
6,False,1.5,structure_learning,11.0557210445,-1,0,-1.0,[],[],images/11.png,3,7,CH,False,0,False,7,0
7,True,1.5,structure_learning,12.5610511303,unrot,0,1.19814801216,[],[],images/7.png,0,8,CH,False,0,False,8,5
8,False,1.5,structure_learning,14.0662240982,rot,0,1.29786014557,[],[],images/12.png,14,9,CH,True,2,True,1,0
9,True,1.5,structure_learning,15.5715119839,unrot,0,1.45801281929,[],[],images/13.png,12,10,CH,False,2,False,2,0
10,True,1.5,structure_learning,17.0767531395,unrot,0,1.31659698486,[],[],images/3.png,10,11,CH,True,2,False,3,0
11,False,1.5,structure_learning,18.5835402012,rot,0,1.36066603661,[],[],images/5.png,13,12,CH,True,2,False,4,0
12,False,1.5,structure_learning,20.0885641575,-1,90,-1.0,[],[],images/13.png,12,13,CH,False,2,False,5,3
13,True,1.5,structure_learning,21.5942831039,unrot,0,0.913341999054,[],[],images/3.png,10,14,CH,False,2,False,6,3
14,True,1.5,structure_learning,23.0993731022,unrot,0,1.2977540493,[],[],images/5.png,13,15,CH,True,2,False,7,3
15,False,1.5,structure_learning,24.6048929691,-1,0,-1.0,[],[],images/14.png,11,16,CH,True,2,False,8,0
16,True,1.5,structure_learning,26.1100420952,unrot,0,0.296240091324,[],[],images/5.png,13,17,CH,False,2,False,9,2
17,True,1.5,structure_learning,27.6150801182,unrot,0,0.609479904175,[],[],images/3.png,10,18,CH,True,2,False,10,4
18,True,1.5,structure_learning,29.1203520298,unrot,0,0.994313001633,[],[],images/13.png,12,19,CH,True,2,False,11,6
19,False,1.5,structure_learning,30.6253640652,unrot,90,0.965571880341,[],[],images/3.png,10,20,CH,True,2,False,12,2
20,True,1.5,structure_learning,32.1305570602,unrot,0,1.04668307304,[],[],images/14.png,11,21,CH,False,2,False,13,5
21,True,1.5,structure_learning,33.6369590759,rot,90,1.02707004547,[],[],images/5.png,13,22,CH,True,2,False,14,5
22,True,1.5,structure_learning,35.1420791149,unrot,0,0.837471961975,[],[],images/14.png,11,23,CH,True,2,False,15,2
23,True,1.5,structure_learning,36.647092104,rot,90,1.03255701065,[],[],images/13.png,12,24,CH,True,2,False,16,5
24,False,1.5,structure_learning,38.1522831917,rot,0,1.209015131,[],[],images/5.png,13,25,CH,True,2,False,17,3
25,False,1.5,structure_learning,39.6587560177,-1,90,-1.0,[],[],images/14.png,11,26,CH,False,2,False,18,3
26,False,1.5,structure_learning,41.1635980606,rot,0,1.20938396454,[],[],images/12.png,14,27,CH,False,2,False,19,18
27,False,1.5,structure_learning,42.6687760353,-1,90,-1.0,[],[],images/14.png,11,28,CH,False,2,False,20,2
28,True,1.5,structure_learning,44.1738879681,rot,90,0.0719890594482,['left'],[1.1750741004943848],images/12.png,14,29,CH,False,2,False,21,2
29,False,1.5,structure_learning,45.6801681519,unrot,90,1.20810890198,[],[],images/13.png,12,30,CH,True,2,False,22,6
30,False,1.5,structure_learning,47.1853911877,-1,0,-1.0,[],[],images/12.png,14,31,CH,False,2,False,23,2
31,True,1.5,structure_learning,48.6906530857,unrot,0,0.770911931992,[],[],images/14.png,11,32,CH,False,2,False,24,4
32,True,1.5,structure_learning,50.1956021786,unrot,0,0.718455076218,[],[],images/3.png,10,33,CH,True,2,False,25,13
33,True,1.5,structure_learning,51.7009661198,unrot,0,1.27784204483,[],[],images/15.png,9,34,CH,True,1,True,1,0
34,False,1.5,structure_learning,53.2061531544,-1,90,-1.0,[],[],images/1.png,8,35,CH,True,1,False,2,0
35,True,1.5,structure_learning,54.7113261223,unrot,0,0.173154115677,[],[],images/4.png,5,36,CH,False,1,False,3,0
36,False,1.5,structure_learning,56.2164011002,rot,0,0.845049142838,[],[],images/10.png,7,37,CH,True,1,False,4,0
37,False,1.5,structure_learning,57.7215089798,-1,0,-1.0,[],[],images/6.png,6,38,CH,False,1,False,5,0
38,True,1.5,structure_learning,59.2267639637,unrot,0,1.08975696564,[],[],images/4.png,5,39,CH,False,1,False,6,3
39,True,1.5,structure_learning,60.7320811749,unrot,0,0.677907943726,[],[],images/2.png,4,40,CH,True,0,True,1,34
40,True,1.5,structure_learning,62.2387590408,unrot,0,0.696669101715,[],[],images/8.png,1,41,CH,True,0,False,2,37
41,True,1.5,structure_learning,63.7440080643,unrot,0,0.874264955521,[],[],images/2.png,4,42,CH,True,0,False,3,2
42,True,1.5,structure_learning,65.2491121292,unrot,0,0.781947135925,[],[],images/9.png,2,43,CH,True,0,False,4,38
43,True,1.5,structure_learning,66.7543711662,unrot,0,0.816735029221,[],[],images/2.png,4,44,CH,True,0,False,5,2
44,True,1.5,structure_learning,68.259483099,unrot,0,0.588589191437,[],[],images/9.png,2,45,CH,True,0,False,6,2
45,False,1.5,structure_learning,69.7648761272,rot,0,0.663034915924,[],[],images/11.png,3,46,CH,True,0,False,7,39
46,True,1.5,structure_learning,71.271654129,unrot,0,0.616731882095,[],[],images/8.png,1,47,CH,False,0,False,8,6
47,True,1.5,structure_learning,72.7768349648,unrot,0,1.43673801422,[],[],images/11.png,3,48,CH,True,0,False,9,2
48,True,1.5,structure_learning,74.2829780579,unrot,0,0.939033985138,[],[],images/2.png,4,49,CH,True,0,False,10,5
49,True,1.5,structure_learning,75.78840518,unrot,0,0.862337112427,[],[],images/8.png,1,50,CH,True,0,False,11,3
50,True,1.5,structure_learning,77.2936329842,unrot,0,0.658446073532,[],[],images/9.png,2,51,CH,True,0,False,12,6
51,False,1.5,structure_learning,78.7989020348,-1,90,-1.0,[],[],images/7.png,0,52,CH,True,0,False,13,44
52,True,1.5,structure_learning,80.3043100834,unrot,0,0.0776751041412,['left'],[0.8876361846923828],images/12.png,14,53,CH,False,2,True,1,22
53,True,1.5,structure_learning,81.8096990585,rot,90,0.787071943283,[],[],images/13.png,12,54,CH,True,2,False,2,24
54,True,1.5,structure_learning,83.3148570061,rot,90,0.932859897614,[],[],images/14.png,11,55,CH,True,2,False,3,23
55,False,1.5,structure_learning,84.8198421001,rot,0,0.959599018097,[],[],images/12.png,14,56,CH,True,2,False,4,3
56,False,1.5,structure_learning,86.3249411583,rot,0,1.13744187355,[],[],images/13.png,12,57,CH,False,2,False,5,3
57,True,1.5,structure_learning,87.8298580647,unrot,0,0.812727928162,[],[],images/14.png,11,58,CH,False,2,False,6,3
58,False,1.5,structure_learning,89.3349499702,unrot,90,0.74400806427,[],[],images/12.png,14,59,CH,True,2,False,7,3
59,False,1.5,structure_learning,90.8400871754,-1,0,-1.0,[],[],images/7.png,0,60,CH,False,0,True,1,8
60,True,1.5,structure_learning,92.3453600407,unrot,0,0.209649801254,[],[],images/11.png,3,61,CH,False,0,False,2,13
61,True,1.5,structure_learning,93.8519961834,unrot,0,0.505028963089,[],[],images/7.png,0,62,CH,True,0,False,3,2
62,False,1.5,structure_learning,95.358590126,rot,0,0.84942984581,[],[],images/11.png,3,63,CH,True,0,False,4,2
63,False,1.5,structure_learning,96.8651950359,-1,90,-1.0,[],[],images/7.png,0,64,CH,False,0,False,5,2
64,False,1.5,structure_learning,98.3704910278,rot,0,1.05506896973,[],[],images/12.png,14,65,CH,False,2,True,1,6
65,True,1.5,structure_learning,99.8756570816,unrot,0,1.23897981644,[],[],images/13.png,12,66,CH,False,2,False,2,9
66,True,1.5,structure_learning,101.380912066,unrot,0,0.987614870071,[],[],images/12.png,14,67,CH,True,2,False,3,2
67,False,1.5,structure_learning,102.885956049,-1,0,-1.0,[],[],images/7.png,0,68,CH,True,0,True,1,4
68,True,1.5,structure_learning,104.391014099,unrot,0,0.828401088715,[],[],images/8.png,1,69,CH,False,0,False,2,19
69,False,1.5,structure_learning,105.8961761,rot,0,1.08656597137,[],[],images/7.png,0,70,CH,True,0,False,3,2
70,True,1.5,structure_learning,107.401571989,unrot,0,0.721914052963,[],[],images/9.png,2,71,CH,False,0,False,4,20
71,False,1.5,structure_learning,108.906908989,-1,0,-1.0,[],[],images/2.png,4,72,CH,True,0,False,5,23
72,True,1.5,structure_learning,110.412048101,unrot,0,0.252030849457,[],[],images/9.png,2,73,CH,False,0,False,6,2
73,True,1.5,structure_learning,111.917518139,unrot,0,0.874199867249,[],[],images/2.png,4,74,CH,True,0,False,7,2
74,True,1.5,structure_learning,113.422829151,unrot,0,1.11474108696,[],[],images/4.png,5,75,CH,True,1,True,1,36
75,False,1.5,structure_learning,114.928104162,rot,0,1.17403197289,[],[],images/10.png,7,76,CH,True,1,False,2,39
76,True,1.5,structure_learning,116.433539152,unrot,0,1.15096402168,[],[],images/4.png,5,77,CH,False,1,False,3,2
77,True,1.5,structure_learning,117.938873053,unrot,0,1.16022896767,[],[],images/1.png,8,78,CH,True,1,False,4,43
78,True,1.5,structure_learning,119.445397139,unrot,0,0.995373010635,[],[],images/4.png,5,79,CH,True,1,False,5,2
79,False,1.5,structure_learning,120.950724125,-1,90,-1.0,[],[],images/2.png,4,80,CH,True,0,True,1,6
80,True,1.5,structure_learning,122.456055164,unrot,0,0.19158911705,[],[],images/9.png,2,81,CH,False,0,False,2,8
81,True,1.5,structure_learning,123.961196184,unrot,0,0.702517032623,[],[],images/8.png,1,82,CH,True,0,False,3,13
82,True,1.5,structure_learning,125.46649313,unrot,0,0.681009054184,[],[],images/9.png,2,83,CH,True,0,False,4,2
83,True,1.5,structure_learning,126.971808195,unrot,0,1.10355401039,[],[],images/11.png,3,84,CH,True,0,False,5,21
84,True,1.5,structure_learning,128.47834301,unrot,0,1.08197283745,[],[],images/9.png,2,85,CH,True,0,False,6,2
85,True,1.5,structure_learning,129.98363018,unrot,0,1.06021118164,[],[],images/2.png,4,86,CH,True,0,False,7,6
86,True,1.5,structure_learning,131.489010096,unrot,0,0.941946029663,[],[],images/4.png,5,87,CH,True,1,True,1,8
87,False,1.5,structure_learning,132.995484114,-1,90,-1.0,[],[],images/6.png,6,88,CH,True,1,False,2,50
88,False,1.5,structure_learning,134.500715971,rot,0,0.16365814209,[],[],images/15.png,9,89,CH,False,1,False,3,55
89,False,1.5,structure_learning,136.005695105,unrot,90,1.3803730011,[],[],images/10.png,7,90,CH,False,1,False,4,14
90,True,1.5,structure_learning,137.510930061,unrot,0,0.993567943573,[],[],images/4.png,5,91,CH,False,1,False,5,4
91,True,1.5,structure_learning,139.01612711,unrot,0,1.04426407814,[],[],images/2.png,4,92,CH,True,0,True,1,6
92,True,1.5,structure_learning,140.521216154,unrot,0,0.792274951935,[],[],images/4.png,5,93,CH,True,1,True,1,2
93,True,1.5,structure_learning,142.026362181,unrot,0,1.1924059391,[],[],images/10.png,7,94,CH,True,1,False,2,4
94,False,1.5,structure_learning,143.531501055,-1,90,-1.0,[],[],images/1.png,8,95,CH,True,1,False,3,17
95,True,1.5,structure_learning,145.03666997,unrot,0,0.357266902924,[],[],images/15.png,9,96,CH,False,1,False,4,7
96,False,1.5,structure_learning,146.541721106,rot,0,1.1000289917,[],[],images/1.png,8,97,CH,True,1,False,5,2
97,True,1.5,structure_learning,148.04678297,unrot,0,1.093542099,[],[],images/10.png,7,98,CH,False,1,False,6,4
98,False,1.5,structure_learning,149.551825047,-1,90,-1.0,[],[],images/6.png,6,99,CH,True,1,False,7,11
99,True,1.5,structure_learning,151.056964159,unrot,0,0.616230964661,[],[],images/4.png,5,100,CH,False,1,False,8,7
100,False,1.5,structure_learning,152.562134027,unrot,90,0.809726953506,[],[],images/2.png,4,101,CH,True,0,True,1,9
101,True,1.5,structure_learning,154.0672822,unrot,0,0.733080863953,[],[],images/8.png,1,102,CH,False,0,False,2,20
102,True,1.5,structure_learning,155.572448015,unrot,0,0.687402009964,[],[],images/2.png,4,103,CH,True,0,False,3,2
103,True,1.5,structure_learning,157.077980995,unrot,0,0.681944847107,[],[],images/4.png,5,104,CH,True,1,True,1,4
104,True,1.5,structure_learning,158.583245039,unrot,0,0.533275127411,[],[],images/2.png,4,105,CH,True,0,True,1,2
105,True,1.5,structure_learning,160.088643074,unrot,0,0.613571166992,[],[],images/8.png,1,106,CH,True,0,False,2,4
106,True,1.5,structure_learning,161.595628023,rot,90,0.846116065979,[],[],images/7.png,0,107,CH,True,0,False,3,37
107,False,1.5,structure_learning,163.102792025,rot,0,0.800980091095,[],[],images/12.png,14,108,CH,True,2,True,1,41
108,True,1.5,structure_learning,164.607805967,unrot,0,0.619264125824,[],[],images/14.png,11,109,CH,False,2,False,2,51
109,True,1.5,structure_learning,166.112890005,unrot,0,0.669513940811,[],[],images/13.png,12,110,CH,True,2,False,3,44
110,False,1.5,structure_learning,167.618057013,rot,0,0.855895996094,[],[],images/12.png,14,111,CH,True,2,False,4,3
111,False,1.5,structure_learning,169.123797178,unrot,90,1.11131286621,[],[],images/14.png,11,112,CH,False,2,False,5,3
112,True,1.5,structure_learning,170.629039049,unrot,0,0.843298912048,[],[],images/13.png,12,113,CH,False,2,False,6,3
113,True,1.5,structure_learning,172.134721994,unrot,0,0.782691001892,[],[],images/14.png,11,114,CH,True,2,False,7,2
114,False,1.5,structure_learning,173.639846087,rot,0,0.832991123199,[],[],images/12.png,14,115,CH,True,2,False,8,4
115,True,1.5,structure_learning,175.146306038,unrot,0,0.937681913376,[],[],images/7.png,0,116,CH,False,0,True,1,9
116,True,1.5,structure_learning,176.651426077,unrot,0,1.18476700783,[],[],images/11.png,3,117,CH,True,0,False,2,33
117,True,1.5,structure_learning,178.158241034,unrot,0,1.31473207474,[],[],images/2.png,4,118,CH,True,0,False,3,13
118,True,1.5,structure_learning,179.663532019,unrot,0,0.657281160355,[],[],images/9.png,2,119,CH,True,0,False,4,34
119,True,1.5,structure_learning,181.168857098,unrot,0,0.810846805573,[],[],images/7.png,0,120,CH,True,0,False,5,4
120,True,1.5,structure_learning,182.67407608,rot,90,1.2366669178,[],[],images/12.png,14,121,CH,True,2,True,1,6
121,True,1.5,structure_learning,184.179393053,unrot,0,0.926924943924,[],[],images/14.png,11,122,CH,True,2,False,2,8
122,True,1.5,structure_learning,185.685759068,unrot,0,0.7148001194,[],[],images/13.png,12,123,CH,True,2,False,3,10
123,True,1.5,structure_learning,187.190973997,unrot,0,0.597217082977,[],[],images/14.png,11,124,CH,True,2,False,4,2
124,False,1.5,structure_learning,188.697426081,rot,0,0.950623035431,[],[],images/3.png,10,125,CH,True,2,False,5,92
125,False,1.5,structure_learning,190.2027812,-1,0,-1.0,[],[],images/5.png,13,126,CH,False,2,False,6,101
126,True,1.5,structure_learning,191.707998991,unrot,0,0.749999046326,[],[],images/13.png,12,127,CH,False,2,False,7,4
127,False,1.5,structure_learning,193.213100195,rot,0,1.01617121696,[],[],images/12.png,14,128,CH,True,2,False,8,7
128,False,1.5,structure_learning,194.718274117,unrot,90,0.80273604393,[],[],images/14.png,11,129,CH,False,2,False,9,5
129,True,1.5,structure_learning,196.223390102,unrot,0,0.853671073914,[],[],images/13.png,12,130,CH,False,2,False,10,3
130,True,1.5,structure_learning,197.728579998,unrot,0,0.807708024979,[],[],images/3.png,10,131,CH,True,2,False,11,6
131,True,1.5,structure_learning,199.233754158,unrot,0,0.675585985184,[],[],images/13.png,12,132,CH,True,2,False,12,2
132,True,1.5,structure_learning,200.738969088,unrot,0,0.573125123978,[],[],images/3.png,10,133,CH,True,2,False,13,2
133,True,1.5,structure_learning,202.245738029,unrot,0,0.918009996414,[],[],images/5.png,13,134,CH,True,2,False,14,8
134,True,1.5,structure_learning,203.750751972,unrot,0,0.618716001511,[],[],images/3.png,10,135,CH,True,2,False,15,2
135,True,1.5,structure_learning,205.255874157,unrot,0,0.61351108551,[],[],images/13.png,12,136,CH,True,2,False,16,4
136,True,1.5,structure_learning,206.761207104,unrot,0,0.781632184982,[],[],images/5.png,13,137,CH,True,2,False,17,3
137,True,1.5,structure_learning,208.267686129,unrot,0,0.959171056747,[],[],images/12.png,14,138,CH,True,2,False,18,10
138,True,1.5,structure_learning,209.773054123,unrot,0,0.698677778244,[],[],images/14.png,11,139,CH,True,2,False,19,10
139,True,1.5,structure_learning,211.279249191,unrot,0,0.652989149094,[],[],images/12.png,14,140,CH,True,2,False,20,2
140,True,1.5,structure_learning,212.78482914,unrot,0,0.536660909653,[],[],images/14.png,11,141,CH,True,2,False,21,2
141,False,1.5,structure_learning,214.289757013,unrot,90,0.825675010681,[],[],images/13.png,12,142,CH,True,2,False,22,6
142,True,1.5,structure_learning,215.794845104,unrot,0,0.780702829361,[],[],images/14.png,11,143,CH,False,2,False,23,2
143,False,1.5,structure_learning,217.299880981,rot,0,0.70511507988,[],[],images/12.png,14,144,CH,True,2,False,24,4
144,True,1.5,structure_learning,218.805356979,unrot,0,0.944602966309,[],[],images/7.png,0,145,CH,False,0,True,1,25
145,True,1.5,structure_learning,220.310510159,unrot,0,0.852224111557,[],[],images/12.png,14,146,CH,True,2,True,1,2
146,True,1.5,structure_learning,221.815623999,unrot,0,0.568817853928,[],[],images/14.png,11,147,CH,True,2,False,2,4
147,True,1.5,structure_learning,223.320799112,unrot,0,0.658839941025,[],[],images/5.png,13,148,CH,True,2,False,3,11
148,False,1.5,structure_learning,224.826159,unrot,90,0.524959087372,[],[],images/3.png,10,149,CH,True,2,False,4,14
149,True,1.5,structure_learning,226.332805157,unrot,0,0.551619052887,[],[],images/13.png,12,150,CH,False,2,False,5,8
150,True,1.5,structure_learning,227.838003159,unrot,0,0.561197042465,[],[],images/3.png,10,151,CH,True,2,False,6,2
151,True,1.5,structure_learning,229.344053984,unrot,0,0.691190958023,[],[],images/5.png,13,152,CH,True,2,False,7,4
152,True,1.5,structure_learning,230.849225998,unrot,0,0.55943107605,[],[],images/14.png,11,153,CH,True,2,False,8,6
153,True,1.5,structure_learning,232.35425806,unrot,0,0.576439142227,[],[],images/13.png,12,154,CH,True,2,False,9,4
154,True,1.5,structure_learning,233.860599041,unrot,0,0.538975000381,[],[],images/3.png,10,155,CH,True,2,False,10,4
155,True,1.5,structure_learning,235.366042137,unrot,0,0.453552007675,[],[],images/5.png,13,156,CH,True,2,False,11,4
156,False,1.5,structure_learning,236.871476173,unrot,90,0.99652504921,[],[],images/13.png,12,157,CH,True,2,False,12,3
157,True,1.5,structure_learning,238.376657009,unrot,0,0.768381118774,[],[],images/5.png,13,158,CH,False,2,False,13,2
158,True,1.5,structure_learning,239.881831169,unrot,0,0.914110183716,[],[],images/12.png,14,159,CH,True,2,False,14,13
159,True,1.5,structure_learning,241.387081146,unrot,0,0.462282896042,[],[],images/5.png,13,160,CH,True,2,False,15,2
160,True,1.5,structure_learning,242.893635035,unrot,0,0.536784887314,[],[],images/13.png,12,161,CH,True,2,False,16,4
161,True,1.5,structure_learning,244.398562193,unrot,0,0.610948085785,[],[],images/5.png,13,162,CH,True,2,False,17,2
162,True,1.5,structure_learning,245.903778076,unrot,0,0.493524074554,[],[],images/14.png,11,163,CH,True,2,False,18,10
163,True,1.5,structure_learning,247.409610987,unrot,0,0.479934930801,[],[],images/13.png,12,164,CH,True,2,False,19,3
164,True,1.5,structure_learning,248.914808989,unrot,0,0.37895488739,[],[],images/14.png,11,165,CH,True,2,False,20,2
165,True,1.5,structure_learning,250.420156002,unrot,0,0.460769891739,[],[],images/13.png,12,166,CH,True,2,False,21,2
166,True,1.5,structure_learning,251.925693035,unrot,0,0.535005092621,[],[],images/14.png,11,167,CH,True,2,False,22,2
167,True,1.5,structure_learning,253.430768013,unrot,0,0.362493991852,[],[],images/3.png,10,168,CH,True,2,False,23,13
168,True,1.5,structure_learning,254.936201096,unrot,0,0.349348068237,[],[],images/15.png,9,169,CH,True,1,True,1,73
169,True,1.5,structure_learning,256.441250086,unrot,0,0.763931035995,[],[],images/1.png,8,170,CH,True,1,False,2,73
170,True,1.5,structure_learning,257.947489977,unrot,0,0.670187950134,[],[],images/15.png,9,171,CH,True,1,False,3,2
171,True,1.5,structure_learning,259.453948975,unrot,0,0.568953037262,[],[],images/6.png,6,172,CH,True,1,False,4,73
172,True,1.5,structure_learning,260.959408045,unrot,0,0.491970062256,[],[],images/1.png,8,173,CH,True,1,False,5,3
173,True,1.5,structure_learning,262.464703083,unrot,0,0.780609130859,[],[],images/10.png,7,174,CH,True,1,False,6,76
174,False,1.5,structure_learning,263.969796181,unrot,90,0.560647010803,[],[],images/1.png,8,175,CH,True,1,False,7,2
175,True,1.5,structure_learning,265.474862099,unrot,0,0.682611942291,[],[],images/10.png,7,176,CH,False,1,False,8,2
176,True,1.5,structure_learning,266.980113029,rot,90,0.702421188354,[],[],images/1.png,8,177,CH,True,1,False,9,2
177,False,1.5,structure_learning,268.485445976,unrot,90,1.45083713531,[],[],images/6.png,6,178,CH,True,1,False,10,6
178,False,1.5,structure_learning,269.990496159,-1,0,-1.0,[],[],images/10.png,7,179,CH,False,1,False,11,3
179,True,1.5,structure_learning,271.495551109,unrot,0,0.74276804924,[],[],images/4.png,5,180,CH,False,1,False,12,76
180,False,1.5,structure_learning,273.000986099,unrot,90,0.920012950897,[],[],images/6.png,6,181,CH,True,1,False,13,3
181,False,1.5,structure_learning,274.506288052,-1,90,-1.0,[],[],images/1.png,8,182,CH,False,1,False,14,5
182,True,1.5,structure_learning,276.011490107,unrot,0,0.252113819122,[],[],images/6.png,6,183,CH,False,1,False,15,2
183,True,1.5,structure_learning,277.51692009,unrot,0,0.882482051849,[],[],images/1.png,8,184,CH,True,1,False,16,2
184,True,1.5,structure_learning,279.022251129,unrot,0,0.638590812683,[],[],images/4.png,5,185,CH,True,1,False,17,5
185,True,1.5,structure_learning,280.527501106,unrot,0,0.474161148071,[],[],images/1.png,8,186,CH,True,1,False,18,2
186,True,1.5,structure_learning,282.032762051,unrot,0,0.65980887413,[],[],images/4.png,5,187,CH,True,1,False,19,2
187,True,1.5,structure_learning,283.538029194,unrot,0,0.726074934006,[],[],images/6.png,6,188,CH,True,1,False,20,5
188,False,1.5,structure_learning,285.043441057,-1,0,-1.0,[],[],images/1.png,8,189,CH,True,1,False,21,3
189,True,1.5,structure_learning,286.548846006,unrot,0,0.0721518993378,['right'],[1.1275019645690918],images/4.png,5,190,CH,False,1,False,22,3
190,True,1.5,structure_learning,288.055354118,unrot,0,0.566164970398,[],[],images/1.png,8,191,CH,True,1,False,23,2
191,True,1.5,structure_learning,289.560564995,unrot,0,0.814775943756,[],[],images/15.png,9,192,CH,True,1,False,24,21
192,True,1.5,structure_learning,291.065752983,unrot,0,0.688773155212,[],[],images/10.png,7,193,CH,True,1,False,25,14
193,True,1.5,structure_learning,292.572506189,unrot,0,0.699303150177,[],[],images/4.png,5,194,CH,True,1,False,26,4
194,True,1.5,structure_learning,294.077697992,unrot,0,0.678140878677,[],[],images/1.png,8,195,CH,True,1,False,27,4
195,True,1.5,structure_learning,295.582900047,unrot,0,0.569454908371,[],[],images/4.png,5,196,CH,True,1,False,28,2
196,True,1.5,structure_learning,297.088040113,unrot,0,0.691247940063,[],[],images/10.png,7,197,CH,True,1,False,29,4
197,True,1.5,structure_learning,298.593389988,unrot,0,0.677917003632,[],[],images/15.png,9,198,CH,True,1,False,30,6
198,False,1.5,structure_learning,300.098497152,unrot,90,0.632755994797,[],[],images/3.png,10,199,CH,True,2,True,1,31
199,True,1.5,structure_learning,301.603926182,unrot,0,0.985450983047,[],[],images/15.png,9,200,CH,False,1,True,1,2
200,True,1.5,structure_learning,303.10890317,unrot,0,0.686359882355,[],[],images/10.png,7,201,CH,True,1,False,2,4
201,True,1.5,structure_learning,304.614006042,unrot,0,0.569519996643,[],[],images/1.png,8,202,CH,True,1,False,3,7
202,True,1.5,structure_learning,306.119184971,unrot,0,0.881683111191,[],[],images/6.png,6,203,CH,True,1,False,4,15
203,True,1.5,structure_learning,307.624678135,unrot,0,0.645778894424,[],[],images/1.png,8,204,CH,True,1,False,5,2
204,False,1.5,structure_learning,309.130074978,unrot,90,0.616466999054,[],[],images/15.png,9,205,CH,True,1,False,6,5
205,True,1.5,structure_learning,310.635403156,unrot,0,0.619179964066,[],[],images/10.png,7,206,CH,False,1,False,7,5
206,True,1.5,structure_learning,312.140714169,unrot,0,0.804431915283,[],[],images/6.png,6,207,CH,True,1,False,8,4
207,True,1.5,structure_learning,313.64610219,unrot,0,0.653663873672,[],[],images/4.png,5,208,CH,True,1,False,9,12
208,True,1.5,structure_learning,315.153840065,unrot,0,0.767654180527,[],[],images/1.png,8,209,CH,True,1,False,10,5
209,True,1.5,structure_learning,316.659105062,unrot,0,0.70671582222,[],[],images/6.png,6,210,CH,True,1,False,11,3
210,True,1.5,structure_learning,318.164448977,unrot,0,0.590276956558,[],[],images/15.png,9,211,CH,True,1,False,12,6
211,True,1.5,structure_learning,319.66990304,unrot,0,0.600725889206,[],[],images/6.png,6,212,CH,True,1,False,13,2
212,True,1.5,structure_learning,321.175187111,unrot,0,0.50789308548,[],[],images/1.png,8,213,CH,True,1,False,14,4
213,True,1.5,structure_learning,322.680632114,unrot,0,0.653620004654,[],[],images/4.png,5,214,CH,True,1,False,15,6
214,True,1.5,structure_learning,324.185881138,rot,90,0.991545915604,[],[],images/10.png,7,215,CH,True,1,False,16,9
215,True,1.5,structure_learning,325.690945148,unrot,0,0.897094964981,[],[],images/4.png,5,216,CH,True,1,False,17,2
216,True,1.5,structure_learning,327.19633913,unrot,0,1.05062603951,[],[],images/6.png,6,217,CH,True,1,False,18,5
217,True,1.5,structure_learning,328.701824188,unrot,0,0.639883995056,[],[],images/4.png,5,218,CH,True,1,False,19,2
218,True,1.5,structure_learning,330.206981182,unrot,0,0.537256002426,[],[],images/10.png,7,219,CH,True,1,False,20,4
219,True,1.5,structure_learning,331.714105129,rot,90,0.978251934052,[],[],images/6.png,6,220,CH,True,1,False,21,3
220,True,1.5,structure_learning,333.219427109,rot,90,0.703200101852,[],[],images/15.png,9,221,CH,True,1,False,22,10
221,True,1.5,structure_learning,334.724513054,unrot,0,0.974519014359,[],[],images/6.png,6,222,CH,True,1,False,23,2
222,True,1.5,structure_learning,336.229801178,unrot,0,1.16794204712,[],[],images/4.png,5,223,CH,True,1,False,24,5
223,True,1.5,structure_learning,337.735009193,unrot,0,1.19433498383,[],[],images/6.png,6,224,CH,True,1,False,25,2
224,True,1.5,structure_learning,339.240398169,unrot,0,0.561179876328,[],[],images/4.png,5,225,CH,True,1,False,26,2
225,True,1.5,structure_learning,340.745687008,unrot,0,0.595428943634,[],[],images/2.png,4,226,CH,True,0,True,1,108
226,True,1.5,structure_learning,342.251116037,unrot,0,0.685647010803,[],[],images/8.png,1,227,CH,True,0,False,2,121
227,False,1.5,structure_learning,343.756298065,rot,0,0.737792015076,[],[],images/11.png,3,228,CH,True,0,False,3,111
228,True,1.5,structure_learning,345.261389017,unrot,0,0.603696107864,[],[],images/9.png,2,229,CH,False,0,False,4,110
229,False,1.5,structure_learning,346.76672411,-1,0,-1.0,[],[],images/2.png,4,230,CH,True,0,False,5,4
230,True,1.5,structure_learning,348.272087097,unrot,0,0.0149371623993,['right'],[0.895064115524292],images/8.png,1,231,CH,False,0,False,6,4
231,True,1.5,structure_learning,349.777552128,unrot,0,0.579655885696,[],[],images/9.png,2,232,CH,True,0,False,7,3
232,True,1.5,structure_learning,351.283162117,rot,90,1.0748898983,[],[],images/7.png,0,233,CH,True,0,False,8,88
233,True,1.5,structure_learning,352.789714098,unrot,0,0.877168893814,[],[],images/9.png,2,234,CH,True,0,False,9,2
234,True,1.5,structure_learning,354.294874191,unrot,0,0.601381063461,[],[],images/8.png,1,235,CH,True,0,False,10,4
235,False,1.5,structure_learning,355.800285101,rot,0,0.819308042526,[],[],images/7.png,0,236,CH,True,0,False,11,3
236,True,1.5,structure_learning,357.306908131,unrot,0,1.0013859272,[],[],images/11.png,3,237,CH,False,0,False,12,9
237,False,1.5,structure_learning,358.813929081,unrot,90,0.686417818069,[],[],images/7.png,0,238,CH,True,0,False,13,2
238,False,1.5,structure_learning,360.319252968,rot,0,0.96883893013,[],[],images/11.png,3,239,CH,False,0,False,14,2
239,True,1.5,structure_learning,361.824510098,unrot,0,0.753816127777,[],[],images/2.png,4,240,CH,False,0,False,15,10
240,True,1.5,structure_learning,363.331057072,rot,90,1.21858596802,[],[],images/9.png,2,241,CH,True,0,False,16,7
241,False,1.5,structure_learning,364.836490154,rot,0,0.879572153091,[],[],images/11.png,3,242,CH,True,0,False,17,3
242,True,1.5,structure_learning,366.34187007,unrot,0,0.705773115158,[],[],images/8.png,1,243,CH,False,0,False,18,8
243,True,1.5,structure_learning,367.847391129,unrot,0,0.628761053085,[],[],images/2.png,4,244,CH,True,0,False,19,4
244,True,1.5,structure_learning,369.352689981,unrot,0,0.575746059418,[],[],images/4.png,5,245,CH,True,1,True,1,20
245,True,1.5,structure_learning,370.857903004,unrot,0,0.737171173096,[],[],images/10.png,7,246,CH,True,1,False,2,27
246,True,1.5,structure_learning,372.363630056,unrot,0,0.786348819733,[],[],images/15.png,9,247,CH,True,1,False,3,26
247,True,1.5,structure_learning,373.870122194,unrot,0,0.661610126495,[],[],images/1.png,8,248,CH,True,1,False,4,35
248,True,1.5,structure_learning,375.375373125,unrot,0,0.600594997406,[],[],images/10.png,7,249,CH,True,1,False,5,3
249,True,1.5,structure_learning,376.880666018,rot,90,0.835352897644,[],[],images/15.png,9,250,CH,True,1,False,6,3
250,True,1.5,structure_learning,378.385785103,unrot,0,0.637850046158,[],[],images/1.png,8,251,CH,True,1,False,7,3
251,True,1.5,structure_learning,379.890844107,unrot,0,0.600812911987,[],[],images/4.png,5,252,CH,True,1,False,8,7
252,True,1.5,structure_learning,381.396187067,unrot,0,0.515830993652,[],[],images/2.png,4,253,CH,True,0,True,1,9
253,False,1.5,structure_learning,382.901498079,rot,0,0.702934026718,[],[],images/11.png,3,254,CH,True,0,False,2,12
254,True,1.5,structure_learning,384.406658173,unrot,0,0.791616916656,[],[],images/7.png,0,255,CH,False,0,False,3,17
255,True,1.5,structure_learning,385.911852121,unrot,0,1.00048494339,[],[],images/11.png,3,256,CH,True,0,False,4,2
256,True,1.5,structure_learning,387.417319059,unrot,0,0.645434141159,[],[],images/8.png,1,257,CH,True,0,False,5,14
257,True,1.5,structure_learning,388.922545195,unrot,0,0.990183115005,[],[],images/11.png,3,258,CH,True,0,False,6,2
258,True,1.5,structure_learning,390.427636147,unrot,0,1.20700883865,[],[],images/9.png,2,259,CH,True,0,False,7,18
259,True,1.5,structure_learning,391.933007002,unrot,0,0.76349902153,[],[],images/2.png,4,260,CH,True,0,False,8,7
260,True,1.5,structure_learning,393.43938899,unrot,0,0.574909210205,[],[],images/9.png,2,261,CH,True,0,False,9,2
261,True,1.5,structure_learning,394.9448421,unrot,0,0.680649995804,[],[],images/11.png,3,262,CH,True,0,False,10,4
262,True,1.5,structure_learning,396.450402021,unrot,0,0.577704906464,[],[],images/9.png,2,263,CH,True,0,False,11,2
263,True,1.5,structure_learning,397.958036184,unrot,0,0.580192089081,[],[],images/11.png,3,264,CH,True,0,False,12,2
264,True,1.5,structure_learning,399.463294983,unrot,0,0.495067119598,[],[],images/2.png,4,265,CH,True,0,False,13,5
265,False,1.5,structure_learning,400.968567133,unrot,90,0.497786045074,[],[],images/11.png,3,266,CH,True,0,False,14,2
266,True,1.5,structure_learning,402.473790169,rot,90,1.06624698639,[],[],images/9.png,2,267,CH,False,0,False,15,4
267,False,1.5,structure_learning,403.978935003,rot,0,0.861135005951,[],[],images/7.png,0,268,CH,True,0,False,16,13
268,True,1.5,structure_learning,405.48540616,unrot,0,0.846541881561,[],[],images/9.png,2,269,CH,False,0,False,17,2
269,True,1.5,structure_learning,406.990674019,unrot,0,0.896906137466,[],[],images/7.png,0,270,CH,True,0,False,18,2
270,True,1.5,structure_learning,408.49588418,unrot,0,1.05836701393,[],[],images/11.png,3,271,CH,True,0,False,19,5
271,True,1.5,structure_learning,410.001223087,unrot,0,0.576325178146,[],[],images/9.png,2,272,CH,True,0,False,20,3
272,True,1.5,structure_learning,411.506544113,unrot,0,0.912678956985,[],[],images/7.png,0,273,CH,True,0,False,21,3
273,True,1.5,structure_learning,413.011963129,unrot,0,0.6120429039,[],[],images/9.png,2,274,CH,True,0,False,22,2
274,True,1.5,structure_learning,414.5186131,unrot,0,0.533962965012,[],[],images/7.png,0,275,CH,True,0,False,23,2
275,True,1.5,structure_learning,416.025145054,unrot,0,0.576595067978,[],[],images/8.png,1,276,CH,True,0,False,24,19
276,True,1.5,structure_learning,417.530549049,unrot,0,0.634857177734,[],[],images/9.png,2,277,CH,True,0,False,25,3
277,True,1.5,structure_learning,419.035817146,unrot,0,0.558404922485,[],[],images/2.png,4,278,CH,True,0,False,26,13
278,True,1.5,structure_learning,420.541052103,unrot,0,0.561146020889,[],[],images/9.png,2,279,CH,True,0,False,27,2
279,True,1.5,structure_learning,422.046333075,unrot,0,0.753504037857,[],[],images/11.png,3,280,CH,True,0,False,28,9
280,True,1.5,structure_learning,423.552895069,rot,90,0.805695056915,[],[],images/7.png,0,281,CH,True,0,False,29,6
281,False,1.5,structure_learning,425.057938099,unrot,90,0.647565841675,[],[],images/8.png,1,282,CH,True,0,False,30,6
282,True,1.5,structure_learning,426.56340003,unrot,0,0.530961036682,[],[],images/2.png,4,283,CH,False,0,False,31,5
283,False,1.5,structure_learning,428.068763018,unrot,90,1.1221549511,[],[],images/8.png,1,284,CH,True,0,False,32,2
284,True,1.5,structure_learning,429.573950052,unrot,0,0.751149177551,[],[],images/2.png,4,285,CH,False,0,False,33,2
285,True,1.5,structure_learning,431.079540014,unrot,0,0.698374986649,[],[],images/8.png,1,286,CH,True,0,False,34,2
286,True,1.5,structure_learning,432.58478713,unrot,0,0.717101097107,[],[],images/9.png,2,287,CH,True,0,False,35,8
287,True,1.5,structure_learning,434.090016127,unrot,0,0.950485944748,[],[],images/11.png,3,288,CH,True,0,False,36,8
288,True,1.5,structure_learning,435.595309019,unrot,0,0.51633310318,[],[],images/8.png,1,289,CH,True,0,False,37,3
289,False,1.5,structure_learning,437.100576162,rot,0,0.797567129135,[],[],images/11.png,3,290,CH,True,0,False,38,2
290,True,1.5,structure_learning,438.607297182,unrot,0,0.639773130417,[],[],images/2.png,4,291,CH,False,0,False,39,6
291,True,1.5,structure_learning,440.112927198,unrot,0,0.538279056549,[],[],images/9.png,2,292,CH,True,0,False,40,5
292,True,1.5,structure_learning,441.619676113,unrot,0,0.690948009491,[],[],images/2.png,4,293,CH,True,0,False,41,2
293,False,1.5,structure_learning,443.126306057,unrot,90,1.08296084404,[],[],images/8.png,1,294,CH,True,0,False,42,5
294,True,1.5,structure_learning,444.631520033,unrot,0,0.71200299263,[],[],images/7.png,0,295,CH,False,0,False,43,14
295,True,1.5,structure_learning,446.136759996,unrot,0,0.468491077423,[],[],images/8.png,1,296,CH,True,0,False,44,2
296,True,1.5,structure_learning,447.642075062,unrot,0,0.558647871017,[],[],images/2.png,4,297,CH,True,0,False,45,4
297,True,1.5,structure_learning,449.14738512,unrot,0,0.551283836365,[],[],images/8.png,1,298,CH,True,0,False,46,2
298,True,1.5,structure_learning,450.652783155,unrot,0,0.826622009277,[],[],images/11.png,3,299,CH,True,0,False,47,9
299,True,1.5,structure_learning,452.158082008,unrot,0,0.503533124924,[],[],images/9.png,2,300,CH,True,0,False,48,8
300,True,1.5,structure_learning,453.663284063,unrot,0,0.633429050446,[],[],images/11.png,3,301,CH,True,0,False,49,2
301,True,1.5,structure_learning,455.16879797,unrot,0,0.676069021225,[],[],images/8.png,1,302,CH,True,0,False,50,4
302,False,1.5,structure_learning,456.674376965,unrot,90,0.98060798645,[],[],images/7.png,0,303,CH,True,0,False,51,8
303,True,1.5,structure_learning,458.179666996,unrot,0,0.705384016037,[],[],images/9.png,2,304,CH,False,0,False,52,4
304,True,1.5,structure_learning,459.684937,unrot,0,1.17673492432,[],[],images/11.png,3,305,CH,True,0,False,53,4
305,True,1.5,structure_learning,461.190495014,unrot,0,0.519685029984,[],[],images/9.png,2,306,CH,True,0,False,54,2
306,True,1.5,structure_learning,462.695935965,unrot,0,0.578086853027,[],[],images/11.png,3,307,CH,True,0,False,55,2
307,True,1.5,structure_learning,464.201303005,unrot,0,1.2941930294,[],[],images/7.png,0,308,CH,True,0,False,56,5
308,True,1.5,structure_learning,465.707911015,unrot,0,0.985087871552,[],[],images/11.png,3,309,CH,True,0,False,57,2
309,False,1.5,structure_learning,467.214635134,unrot,90,0.70210814476,[],[],images/7.png,0,310,CH,True,0,False,58,2
310,True,1.5,structure_learning,468.719830036,unrot,0,0.840202093124,[],[],images/12.png,14,311,CH,False,2,True,1,152
311,True,1.5,structure_learning,470.22487402,unrot,0,0.667827129364,[],[],images/5.png,13,312,CH,True,2,False,2,150
312,False,1.5,structure_learning,471.730180979,unrot,90,0.853091001511,[],[],images/12.png,14,313,CH,True,2,False,3,2
313,True,1.5,structure_learning,473.235337973,unrot,0,0.847553014755,[],[],images/14.png,11,314,CH,False,2,False,4,147
314,True,1.5,structure_learning,474.740535021,unrot,0,0.786219120026,[],[],images/13.png,12,315,CH,True,2,False,5,149
315,True,1.5,structure_learning,476.245807171,unrot,0,0.677430152893,[],[],images/5.png,13,316,CH,True,2,False,6,4
316,True,1.5,structure_learning,477.751039982,unrot,0,0.584716081619,[],[],images/14.png,11,317,CH,True,2,False,7,3
317,False,1.5,structure_learning,479.256020069,unrot,90,0.634771108627,[],[],images/5.png,13,318,CH,True,2,False,8,2
318,False,1.5,structure_learning,480.761346102,unrot,90,0.621182203293,[],[],images/12.png,14,319,CH,False,2,False,9,6
319,False,1.5,structure_learning,482.266595125,-1,0,-1.0,[],[],images/13.png,12,320,CH,False,2,False,10,5
320,True,1.5,structure_learning,483.7717731,unrot,0,0.103668928146,[],[],images/3.png,10,321,CH,False,2,False,11,122
321,True,1.5,structure_learning,485.277266026,unrot,0,0.796720981598,[],[],images/15.png,9,322,CH,True,1,True,1,72
322,True,1.5,structure_learning,486.782894135,unrot,0,0.584546089172,[],[],images/3.png,10,323,CH,True,2,True,1,2
323,True,1.5,structure_learning,488.288233042,unrot,0,0.563285112381,[],[],images/15.png,9,324,CH,True,1,True,1,2
324,True,1.5,structure_learning,489.79341507,unrot,0,0.724684000015,[],[],images/1.png,8,325,CH,True,1,False,2,74
325,False,1.5,structure_learning,491.29864502,unrot,90,1.35546398163,[],[],images/10.png,7,326,CH,True,1,False,3,77
326,False,1.5,structure_learning,492.803569078,unrot,90,1.46989798546,[],[],images/6.png,6,327,CH,False,1,False,4,103
327,False,1.5,structure_learning,494.308806181,rot,0,1.3068959713,[],[],images/4.png,5,328,CH,False,1,False,5,76
328,False,1.5,structure_learning,495.813996077,-1,90,-1.0,[],[],images/1.png,8,329,CH,False,1,False,6,4
329,True,1.5,structure_learning,497.319214106,unrot,0,1.02637386322,[],[],images/6.png,6,330,CH,False,1,False,7,3
330,True,1.5,structure_learning,498.824364185,unrot,0,0.743281126022,[],[],images/4.png,5,331,CH,True,1,False,8,3
331,False,1.5,structure_learning,500.329246044,unrot,90,1.38955211639,[],[],images/2.png,4,332,CH,True,0,True,1,35
332,False,1.5,structure_learning,501.834415197,-1,90,-1.0,[],[],images/11.png,3,333,CH,False,0,False,2,24
333,False,1.5,structure_learning,503.339750051,rot,0,0.190739870071,[],[],images/2.png,4,334,CH,False,0,False,3,2
334,True,1.5,structure_learning,7.89165496826e-05,unrot,0,0.675233125687,[],[],images/4.png,5,335,CH,False,1,True,1,4
335,False,1.5,structure_learning,1.5166118145,unrot,90,1.01174879074,[],[],images/2.png,4,336,CH,True,0,True,1,2
336,True,1.5,structure_learning,3.0217628479,rot,90,1.23058009148,[],[],images/4.png,5,337,CH,False,1,True,1,2
337,True,1.5,structure_learning,4.52702689171,unrot,0,0.897582054138,[],[],images/1.png,8,338,CH,True,1,False,2,9
338,True,1.5,structure_learning,6.03252601624,unrot,0,0.605859041214,[],[],images/15.png,9,339,CH,True,1,False,3,15
339,True,1.5,structure_learning,7.53767991066,unrot,0,0.560914039612,[],[],images/1.png,8,340,CH,True,1,False,4,2
340,True,1.5,structure_learning,9.04280781746,unrot,0,0.50005197525,[],[],images/15.png,9,341,CH,True,1,False,5,2
341,True,1.5,structure_learning,10.5481858253,unrot,0,0.701125860214,[],[],images/6.png,6,342,CH,True,1,False,6,12
342,True,1.5,structure_learning,12.0535268784,rot,90,1.22209715843,[],[],images/4.png,5,343,CH,True,1,False,7,6
343,True,1.5,structure_learning,13.5588018894,unrot,0,0.713641881943,[],[],images/6.png,6,344,CH,True,1,False,8,2
344,True,1.5,structure_learning,15.0651879311,unrot,0,0.882495880127,[],[],images/10.png,7,345,CH,True,1,False,9,19
345,True,1.5,structure_learning,16.5715630054,unrot,0,0.559185028076,[],[],images/15.png,9,346,CH,True,1,False,10,5
346,True,1.5,structure_learning,18.0766398907,unrot,0,0.577759027481,[],[],images/10.png,7,347,CH,True,1,False,11,2
347,True,1.5,structure_learning,19.5821168423,unrot,0,0.636167049408,[],[],images/4.png,5,348,CH,True,1,False,12,5
348,True,1.5,structure_learning,21.0875399113,unrot,0,0.597575902939,[],[],images/10.png,7,349,CH,True,1,False,13,2
349,True,1.5,structure_learning,22.5941948891,unrot,0,0.489104032516,[],[],images/15.png,9,350,CH,True,1,False,14,4
350,False,1.5,structure_learning,24.0992269516,unrot,90,0.396690130234,[],[],images/6.png,6,351,CH,True,1,False,15,7
351,True,1.5,structure_learning,25.6043138504,unrot,0,0.661534786224,[],[],images/1.png,8,352,CH,False,1,False,16,12
352,True,1.5,structure_learning,27.1095190048,unrot,0,0.584473133087,[],[],images/6.png,6,353,CH,True,1,False,17,2
353,True,1.5,structure_learning,28.6147499084,rot,90,0.803154945374,[],[],images/15.png,9,354,CH,True,1,False,18,4
354,True,1.5,structure_learning,30.1198039055,unrot,0,0.724509954453,[],[],images/3.png,10,355,CH,True,2,True,1,32
355,True,1.5,structure_learning,31.6252398491,unrot,0,0.655213117599,[],[],images/15.png,9,356,CH,True,1,True,1,2
356,True,1.5,structure_learning,33.1306729317,rot,90,1.08851003647,[],[],images/6.png,6,357,CH,True,1,False,2,4
357,True,1.5,structure_learning,34.6359009743,unrot,0,0.708338975906,[],[],images/1.png,8,358,CH,True,1,False,3,6
358,True,1.5,structure_learning,36.1411168575,unrot,0,0.583873033524,[],[],images/6.png,6,359,CH,True,1,False,4,2
359,True,1.5,structure_learning,37.6463630199,unrot,0,0.737705945969,[],[],images/10.png,7,360,CH,True,1,False,5,11
360,True,1.5,structure_learning,39.15137887,unrot,0,0.748136043549,[],[],images/4.png,5,361,CH,True,1,False,6,13
361,True,1.5,structure_learning,40.656512022,unrot,0,0.607975006104,[],[],images/6.png,6,362,CH,True,1,False,7,3
362,True,1.5,structure_learning,42.1617360115,rot,90,0.898615121841,[],[],images/15.png,9,363,CH,True,1,False,8,7
363,True,1.5,structure_learning,43.6667039394,unrot,0,0.716927051544,[],[],images/6.png,6,364,CH,True,1,False,9,2
364,True,1.5,structure_learning,45.1720788479,unrot,0,0.870805978775,[],[],images/15.png,9,365,CH,True,1,False,10,2
365,True,1.5,structure_learning,46.6772840023,unrot,0,0.754017114639,[],[],images/3.png,10,366,CH,True,2,True,1,11
366,True,1.5,structure_learning,48.1825869083,unrot,0,0.613749980927,[],[],images/15.png,9,367,CH,True,1,True,1,2
367,True,1.5,structure_learning,49.6880028248,unrot,0,0.648351192474,[],[],images/3.png,10,368,CH,True,2,True,1,2
368,True,1.5,structure_learning,51.1933579445,rot,90,0.907238960266,[],[],images/15.png,9,369,CH,True,1,True,1,2
369,True,1.5,structure_learning,52.6984248161,unrot,0,0.908532857895,[],[],images/1.png,8,370,CH,True,1,False,2,12
370,True,1.5,structure_learning,54.2036929131,unrot,0,0.847481966019,[],[],images/4.png,5,371,CH,True,1,False,3,10
371,False,1.5,structure_learning,55.7089807987,unrot,90,0.890194177628,[],[],images/2.png,4,372,CH,True,0,True,1,36
372,True,1.5,structure_learning,57.2142088413,rot,90,1.06134796143,[],[],images/9.png,2,373,CH,False,0,False,2,67
373,True,1.5,structure_learning,58.7193889618,unrot,0,0.855854988098,[],[],images/2.png,4,374,CH,True,0,False,3,2
374,True,1.5,structure_learning,60.2247099876,unrot,0,0.620080947876,[],[],images/8.png,1,375,CH,True,0,False,4,73
375,True,1.5,structure_learning,61.7301359177,unrot,0,0.940144062042,[],[],images/7.png,0,376,CH,True,0,False,5,66
376,False,1.5,structure_learning,63.2354059219,rot,0,1.26174688339,[],[],images/11.png,3,377,CH,True,0,False,6,44
377,True,1.5,structure_learning,64.7407848835,unrot,0,1.20703816414,[],[],images/7.png,0,378,CH,False,0,False,7,2
378,True,1.5,structure_learning,66.2460229397,unrot,0,0.92341709137,[],[],images/11.png,3,379,CH,True,0,False,8,2
379,True,1.5,structure_learning,67.7514619827,unrot,0,0.53679394722,[],[],images/7.png,0,380,CH,True,0,False,9,2
380,True,1.5,structure_learning,69.2565128803,rot,90,1.18530893326,[],[],images/12.png,14,381,CH,True,2,True,1,62
381,True,1.5,structure_learning,70.7618219852,unrot,0,1.23377609253,[],[],images/5.png,13,382,CH,True,2,False,2,64
382,True,1.5,structure_learning,72.2671248913,unrot,0,0.688651800156,[],[],images/14.png,11,383,CH,True,2,False,3,66
383,False,1.5,structure_learning,73.7721328735,rot,0,0.993731975555,[],[],images/12.png,14,384,CH,True,2,False,4,3
384,True,1.5,structure_learning,75.2785258293,unrot,0,0.693120956421,[],[],images/5.png,13,385,CH,False,2,False,5,3
385,True,1.5,structure_learning,76.7837378979,unrot,0,0.653573989868,[],[],images/13.png,12,386,CH,True,2,False,6,66
386,True,1.5,structure_learning,78.2910919189,unrot,0,0.584902048111,[],[],images/3.png,10,387,CH,True,2,False,7,19
387,True,1.5,structure_learning,79.7963988781,unrot,0,0.968888998032,[],[],images/5.png,13,388,CH,True,2,False,8,3
388,True,1.5,structure_learning,81.3015589714,unrot,0,0.629666090012,[],[],images/3.png,10,389,CH,True,2,False,9,2
389,True,1.5,structure_learning,82.8068678379,unrot,0,0.592945814133,[],[],images/14.png,11,390,CH,True,2,False,10,7
390,True,1.5,structure_learning,84.3118479252,unrot,0,0.706627130508,[],[],images/13.png,12,391,CH,True,2,False,11,5
391,True,1.5,structure_learning,85.8171508312,unrot,0,0.573634147644,[],[],images/3.png,10,392,CH,True,2,False,12,3
392,True,1.5,structure_learning,87.3226540089,unrot,0,0.608455896378,[],[],images/15.png,9,393,CH,True,1,True,1,24
393,True,1.5,structure_learning,88.8276078701,unrot,0,0.577590942383,[],[],images/10.png,7,394,CH,True,1,False,2,34
394,True,1.5,structure_learning,90.3344259262,unrot,0,0.682432889938,[],[],images/1.png,8,395,CH,True,1,False,3,25
395,True,1.5,structure_learning,91.8406770229,unrot,0,0.533977985382,[],[],images/10.png,7,396,CH,True,1,False,4,2
396,True,1.5,structure_learning,93.346064806,unrot,0,0.425652980804,[],[],images/15.png,9,397,CH,True,1,False,5,4
397,True,1.5,structure_learning,94.8512718678,unrot,0,0.481976032257,[],[],images/1.png,8,398,CH,True,1,False,6,3
398,True,1.5,structure_learning,96.3590209484,unrot,0,0.435812950134,[],[],images/4.png,5,399,CH,True,1,False,7,28
399,True,1.5,structure_learning,97.8654918671,unrot,0,0.375395059586,[],[],images/1.png,8,400,CH,True,1,False,8,2
400,True,1.5,structure_learning,99.3704888821,unrot,0,0.362745046616,[],[],images/10.png,7,401,CH,True,1,False,9,5
401,True,1.5,structure_learning,100.875662804,unrot,0,0.396542072296,[],[],images/6.png,6,402,CH,True,1,False,10,38
402,True,1.5,structure_learning,102.381999969,unrot,0,0.486873149872,[],[],images/4.png,5,403,CH,True,1,False,11,4
403,False,1.5,structure_learning,103.887126923,unrot,90,0.306994199753,[],[],images/2.png,4,404,CH,True,0,True,1,30
404,True,1.5,structure_learning,105.392316818,unrot,0,0.547961950302,[],[],images/4.png,5,405,CH,False,1,True,1,2
405,True,1.5,structure_learning,106.897530794,rot,90,1.26020503044,[],[],images/10.png,7,406,CH,True,1,False,2,5
406,True,1.5,structure_learning,108.402565002,rot,90,1.15978598595,[],[],images/1.png,8,407,CH,True,1,False,3,7
407,True,1.5,structure_learning,109.907729864,unrot,0,0.811570882797,[],[],images/4.png,5,408,CH,True,1,False,4,3
408,False,1.5,structure_learning,111.412946939,rot,0,0.742349147797,[],[],images/1.png,8,409,CH,True,1,False,5,2
409,True,1.5,structure_learning,112.920159817,unrot,0,0.537363052368,[],[],images/15.png,9,410,CH,False,1,False,6,13
410,True,1.5,structure_learning,114.425094843,unrot,0,0.555665016174,[],[],images/3.png,10,411,CH,True,2,True,1,19
411,True,1.5,structure_learning,115.930533886,unrot,0,0.598194122314,[],[],images/13.png,12,412,CH,True,2,False,2,21
412,True,1.5,structure_learning,117.435755968,unrot,0,0.536779880524,[],[],images/3.png,10,413,CH,True,2,False,3,2
413,True,1.5,structure_learning,118.941332817,unrot,0,0.603370904922,[],[],images/15.png,9,414,CH,True,1,True,1,4
414,True,1.5,structure_learning,120.446467876,unrot,0,0.629523038864,[],[],images/10.png,7,415,CH,True,1,False,2,9
415,False,1.5,structure_learning,121.951857805,unrot,90,0.9659512043,[],[],images/6.png,6,416,CH,True,1,False,3,14
416,True,1.5,structure_learning,123.457093954,unrot,0,0.682671785355,[],[],images/1.png,8,417,CH,False,1,False,4,8
417,True,1.5,structure_learning,124.962433815,unrot,0,0.836657047272,[],[],images/10.png,7,418,CH,True,1,False,5,3
418,True,1.5,structure_learning,126.467548847,unrot,0,0.640608072281,[],[],images/4.png,5,419,CH,True,1,False,6,11
419,True,1.5,structure_learning,127.973150969,unrot,0,0.8024559021,[],[],images/2.png,4,420,CH,True,0,True,1,16
420,True,1.5,structure_learning,129.478340864,rot,90,1.06960511208,[],[],images/9.png,2,421,CH,True,0,False,2,48
421,True,1.5,structure_learning,130.983541012,unrot,0,0.721339941025,[],[],images/8.png,1,422,CH,True,0,False,3,47
422,True,1.5,structure_learning,132.488867998,unrot,0,0.891137838364,[],[],images/9.png,2,423,CH,True,0,False,4,2
423,True,1.5,structure_learning,133.994118929,unrot,0,0.695422887802,[],[],images/2.png,4,424,CH,True,0,False,5,4
424,False,1.5,structure_learning,135.4993608,-1,0,-1.0,[],[],images/11.png,3,425,CH,True,0,False,6,46
425,False,1.5,structure_learning,137.004577875,unrot,90,0.115135908127,[],[],images/2.png,4,426,CH,False,0,False,7,2
426,True,1.5,structure_learning,138.509796858,unrot,0,0.760055065155,[],[],images/9.png,2,427,CH,False,0,False,8,4
427,False,1.5,structure_learning,140.016252995,unrot,90,1.04063296318,[],[],images/2.png,4,428,CH,True,0,False,9,2
428,True,1.5,structure_learning,141.521758795,rot,90,1.36242413521,[],[],images/8.png,1,429,CH,False,0,False,10,7
429,False,1.5,structure_learning,143.027161837,rot,0,0.793094158173,[],[],images/7.png,0,430,CH,True,0,False,11,50
430,True,1.5,structure_learning,144.532578945,unrot,0,1.09620594978,[],[],images/12.png,14,431,CH,False,2,True,1,47
431,True,1.5,structure_learning,146.037833929,unrot,0,0.638326883316,[],[],images/13.png,12,432,CH,True,2,False,2,20
432,True,1.5,structure_learning,147.542913914,unrot,0,0.617306947708,[],[],images/5.png,13,433,CH,True,2,False,3,45
433,True,1.5,structure_learning,149.047983885,unrot,0,0.593472957611,[],[],images/13.png,12,434,CH,True,2,False,4,2
434,True,1.5,structure_learning,150.556383848,unrot,0,0.660359859467,[],[],images/5.png,13,435,CH,True,2,False,5,2
435,True,1.5,structure_learning,152.061535835,unrot,0,0.671447038651,[],[],images/14.png,11,436,CH,True,2,False,6,46
436,False,1.5,structure_learning,153.566828012,-1,90,-1.0,[],[],images/12.png,14,437,CH,True,2,False,7,6
437,False,1.5,structure_learning,155.071954012,rot,0,0.00434803962708,[],[],images/5.png,13,438,CH,False,2,False,8,3
438,True,1.5,structure_learning,156.57738781,unrot,0,0.593438148499,[],[],images/3.png,10,439,CH,False,2,False,9,26
439,True,1.5,structure_learning,158.082913876,rot,90,1.12082290649,[],[],images/5.png,13,440,CH,True,2,False,10,2
440,True,1.5,structure_learning,159.589483023,unrot,0,0.812221050262,[],[],images/13.png,12,441,CH,True,2,False,11,7
441,False,1.5,structure_learning,161.094566822,rot,0,1.06294488907,[],[],images/12.png,14,442,CH,True,2,False,12,5
442,True,1.5,structure_learning,162.599634886,unrot,0,1.19928312302,[],[],images/7.png,0,443,CH,False,0,True,1,13
443,False,1.5,structure_learning,164.104920864,unrot,90,0.924008131027,[],[],images/11.png,3,444,CH,True,0,False,2,19
444,True,1.5,structure_learning,165.610335827,unrot,0,1.27529883385,[],[],images/7.png,0,445,CH,False,0,False,3,2
445,True,1.5,structure_learning,167.11695385,unrot,0,0.696604013443,[],[],images/8.png,1,446,CH,True,0,False,4,17
446,True,1.5,structure_learning,168.62353301,rot,90,1.34515690804,[],[],images/2.png,4,447,CH,True,0,False,5,19
447,True,1.5,structure_learning,170.128770828,unrot,0,0.66937494278,[],[],images/9.png,2,448,CH,True,0,False,6,21
448,False,1.5,structure_learning,171.635506868,rot,0,0.880577087402,[],[],images/11.png,3,449,CH,True,0,False,7,5
449,True,1.5,structure_learning,173.140836,unrot,0,0.810171842575,[],[],images/8.png,1,450,CH,False,0,False,8,4
450,True,1.5,structure_learning,174.64601779,unrot,0,0.789427042007,[],[],images/11.png,3,451,CH,True,0,False,9,2
451,True,1.5,structure_learning,176.151268959,unrot,0,0.593430042267,[],[],images/2.png,4,452,CH,True,0,False,10,5
452,True,1.5,structure_learning,177.656845808,unrot,0,0.619073867798,[],[],images/4.png,5,453,CH,True,1,True,1,34
453,True,1.5,structure_learning,179.163017988,unrot,0,0.765178918839,[],[],images/6.png,6,454,CH,True,1,False,2,38
454,True,1.5,structure_learning,180.668385983,unrot,0,0.561136960983,[],[],images/15.png,9,455,CH,True,1,False,3,41
455,True,1.5,structure_learning,182.173759937,unrot,0,0.548279047012,[],[],images/3.png,10,456,CH,True,2,True,1,17
456,True,1.5,structure_learning,183.678915977,unrot,0,0.670780897141,[],[],images/5.png,13,457,CH,True,2,False,2,17
457,True,1.5,structure_learning,185.184120893,unrot,0,0.514698028564,[],[],images/13.png,12,458,CH,True,2,False,3,17
458,True,1.5,structure_learning,186.689230919,unrot,0,0.859746217728,[],[],images/12.png,14,459,CH,True,2,False,4,17
459,True,1.5,structure_learning,188.194311857,unrot,0,0.537259101868,[],[],images/5.png,13,460,CH,True,2,False,5,3
460,True,1.5,structure_learning,189.699585915,unrot,0,0.540405035019,[],[],images/14.png,11,461,CH,True,2,False,6,25
461,True,1.5,structure_learning,191.204620838,unrot,0,0.44849395752,[],[],images/5.png,13,462,CH,True,2,False,7,2
462,True,1.5,structure_learning,192.709668875,unrot,0,0.689941167831,[],[],images/12.png,14,463,CH,True,2,False,8,4
463,False,1.5,structure_learning,194.214782,unrot,90,0.605875015259,[],[],images/5.png,13,464,CH,True,2,False,9,2
464,True,1.5,structure_learning,195.719944954,unrot,0,0.553416967392,[],[],images/14.png,11,465,CH,False,2,False,10,4
465,True,1.5,structure_learning,197.224807978,unrot,0,0.580228805542,[],[],images/3.png,10,466,CH,True,2,False,11,10
466,False,1.5,structure_learning,198.729982853,unrot,90,0.567435026169,[],[],images/15.png,9,467,CH,True,1,True,1,12
467,True,1.5,structure_learning,200.234896898,unrot,0,0.792922019958,[],[],images/6.png,6,468,CH,False,1,False,2,14
468,True,1.5,structure_learning,201.740386009,unrot,0,0.628801822662,[],[],images/1.png,8,469,CH,True,1,False,3,52
469,True,1.5,structure_learning,203.245831966,unrot,0,0.615721940994,[],[],images/6.png,6,470,CH,True,1,False,4,2
470,True,1.5,structure_learning,204.751055002,unrot,0,0.682296991348,[],[],images/4.png,5,471,CH,True,1,False,5,18
471,True,1.5,structure_learning,206.256101847,unrot,0,0.82861995697,[],[],images/2.png,4,472,CH,True,0,True,1,20
472,True,1.5,structure_learning,207.761349916,unrot,0,0.584847211838,[],[],images/8.png,1,473,CH,True,0,False,2,23
473,True,1.5,structure_learning,209.266879797,unrot,0,0.802748918533,[],[],images/11.png,3,474,CH,True,0,False,3,23
474,True,1.5,structure_learning,210.771958828,unrot,0,0.47954082489,[],[],images/2.png,4,475,CH,True,0,False,4,3
475,True,1.5,structure_learning,212.277213812,unrot,0,0.632584095001,[],[],images/9.png,2,476,CH,True,0,False,5,28
476,True,1.5,structure_learning,213.783612013,unrot,0,0.587844848633,[],[],images/8.png,1,477,CH,True,0,False,6,4
477,True,1.5,structure_learning,215.288889885,unrot,0,0.622234106064,[],[],images/11.png,3,478,CH,True,0,False,7,4
478,True,1.5,structure_learning,216.794543982,unrot,0,0.55383682251,[],[],images/8.png,1,479,CH,True,0,False,8,2
479,True,1.5,structure_learning,218.29973793,rot,90,1.20994496346,[],[],images/7.png,0,480,CH,True,0,False,9,35
480,True,1.5,structure_learning,219.804909945,unrot,0,0.861607074738,[],[],images/11.png,3,481,CH,True,0,False,10,3
481,True,1.5,structure_learning,221.310135841,unrot,0,0.856640100479,[],[],images/7.png,0,482,CH,True,0,False,11,2
482,True,1.5,structure_learning,222.815093994,unrot,0,0.987035989761,[],[],images/12.png,14,483,CH,True,2,True,1,20
483,True,1.5,structure_learning,224.320144892,unrot,0,0.632381916046,[],[],images/5.png,13,484,CH,True,2,False,2,20
484,True,1.5,structure_learning,225.82536602,unrot,0,0.634943962097,[],[],images/12.png,14,485,CH,True,2,False,3,2
485,True,1.5,structure_learning,227.330693007,unrot,0,0.606400966644,[],[],images/5.png,13,486,CH,True,2,False,4,2
486,True,1.5,structure_learning,228.835861921,unrot,0,0.68073797226,[],[],images/13.png,12,487,CH,True,2,False,5,29
487,True,1.5,structure_learning,230.341087818,unrot,0,0.651861906052,[],[],images/14.png,11,488,CH,True,2,False,6,23
488,True,1.5,structure_learning,231.846263885,unrot,0,0.575220108032,[],[],images/5.png,13,489,CH,True,2,False,7,3
489,True,1.5,structure_learning,233.351405859,unrot,0,0.546240091324,[],[],images/3.png,10,490,CH,True,2,False,8,24
490,True,1.5,structure_learning,234.856592894,unrot,0,0.493272066116,[],[],images/13.png,12,491,CH,True,2,False,9,4
491,True,1.5,structure_learning,236.361891985,unrot,0,0.504212856293,[],[],images/3.png,10,492,CH,True,2,False,10,2
492,True,1.5,structure_learning,237.867419958,unrot,0,0.553051233292,[],[],images/14.png,11,493,CH,True,2,False,11,5
493,True,1.5,structure_learning,239.373731852,unrot,0,0.643674850464,[],[],images/12.png,14,494,CH,True,2,False,12,9
494,True,1.5,structure_learning,240.878947973,unrot,0,0.599096059799,[],[],images/13.png,12,495,CH,True,2,False,13,4
495,True,1.5,structure_learning,242.384057999,unrot,0,0.58638882637,[],[],images/5.png,13,496,CH,True,2,False,14,7
496,True,1.5,structure_learning,243.88923502,unrot,0,0.510315179825,[],[],images/14.png,11,497,CH,True,2,False,15,4
497,True,1.5,structure_learning,245.394347906,unrot,0,0.66314291954,[],[],images/3.png,10,498,CH,True,2,False,16,6
498,True,1.5,structure_learning,246.901006937,unrot,0,0.475812196732,[],[],images/15.png,9,499,CH,True,1,True,1,32
499,False,1.5,structure_learning,248.405986786,unrot,90,0.54206609726,[],[],images/3.png,10,500,CH,True,2,True,1,2
500,True,1.5,structure_learning,249.911381006,unrot,0,0.648589134216,[],[],images/5.png,13,501,CH,False,2,False,2,5
501,True,1.5,structure_learning,251.416508913,unrot,0,0.548126935959,[],[],images/14.png,11,502,CH,True,2,False,3,5
502,True,1.5,structure_learning,252.921602964,unrot,0,0.534785985947,[],[],images/3.png,10,503,CH,True,2,False,4,3
503,True,1.5,structure_learning,254.427166939,unrot,0,0.593694210052,[],[],images/13.png,12,504,CH,True,2,False,5,9
504,True,1.5,structure_learning,255.932312965,unrot,0,0.556347846985,[],[],images/14.png,11,505,CH,True,2,False,6,3
505,True,1.5,structure_learning,257.437796831,unrot,0,0.653162002563,[],[],images/5.png,13,506,CH,True,2,False,7,5
506,True,1.5,structure_learning,258.94410181,unrot,0,0.815591812134,[],[],images/12.png,14,507,CH,True,2,False,8,13
507,True,1.5,structure_learning,260.449231863,unrot,0,0.738661050797,[],[],images/5.png,13,508,CH,True,2,False,9,2
508,True,1.5,structure_learning,261.954589844,unrot,0,0.622458934784,[],[],images/13.png,12,509,CH,True,2,False,10,5
509,True,1.5,structure_learning,263.459765911,unrot,0,0.593800067902,[],[],images/14.png,11,510,CH,True,2,False,11,5
510,False,1.5,structure_learning,264.964866877,unrot,90,0.612694978714,[],[],images/12.png,14,511,CH,True,2,False,12,4
511,False,1.5,structure_learning,266.47013092,-1,90,-1.0,[],[],images/13.png,12,512,CH,False,2,False,13,3
512,True,1.5,structure_learning,267.975244999,unrot,0,0.677083969116,[],[],images/14.png,11,513,CH,False,2,False,14,3
513,True,1.5,structure_learning,269.480366945,unrot,0,0.645601034164,[],[],images/5.png,13,514,CH,True,2,False,15,6
514,True,1.5,structure_learning,270.988184929,unrot,0,0.561423063278,[],[],images/3.png,10,515,CH,True,2,False,16,12
515,True,1.5,structure_learning,272.493491888,unrot,0,0.540684938431,[],[],images/5.png,13,516,CH,True,2,False,17,2
516,True,1.5,structure_learning,273.998580933,unrot,0,0.623368024826,[],[],images/13.png,12,517,CH,True,2,False,18,5
517,True,1.5,structure_learning,275.503763914,unrot,0,0.697681903839,[],[],images/12.png,14,518,CH,True,2,False,19,7
518,False,1.5,structure_learning,277.008807898,unrot,90,0.510035991669,[],[],images/14.png,11,519,CH,True,2,False,20,6
519,True,1.5,structure_learning,278.513896942,unrot,0,0.584101915359,[],[],images/3.png,10,520,CH,False,2,False,21,5
520,True,1.5,structure_learning,280.019548893,unrot,0,0.577877998352,[],[],images/5.png,13,521,CH,True,2,False,22,5
521,True,1.5,structure_learning,281.526208878,unrot,0,0.515664100647,[],[],images/3.png,10,522,CH,True,2,False,23,2
522,True,1.5,structure_learning,283.032828808,unrot,0,0.597236871719,[],[],images/13.png,12,523,CH,True,2,False,24,6
523,True,1.5,structure_learning,284.539167881,rot,90,0.856187820435,[],[],images/14.png,11,524,CH,True,2,False,25,5
524,True,1.5,structure_learning,286.044170856,unrot,0,0.889376878738,[],[],images/12.png,14,525,CH,True,2,False,26,7
525,True,1.5,structure_learning,287.549296856,unrot,0,0.526887893677,[],[],images/5.png,13,526,CH,True,2,False,27,5
526,False,1.5,structure_learning,289.054515839,unrot,90,0.70400094986,[],[],images/3.png,10,527,CH,True,2,False,28,5
527,True,1.5,structure_learning,290.56019783,unrot,0,0.810158014297,[],[],images/5.png,13,528,CH,False,2,False,29,2
528,True,1.5,structure_learning,292.065509796,unrot,0,0.564981937408,[],[],images/3.png,10,529,CH,True,2,False,30,2
529,True,1.5,structure_learning,293.572335958,unrot,0,0.52800488472,[],[],images/13.png,12,530,CH,True,2,False,31,7
530,True,1.5,structure_learning,295.077593803,unrot,0,0.777765989304,[],[],images/12.png,14,531,CH,True,2,False,32,6
531,True,1.5,structure_learning,296.582927942,unrot,0,0.732985019684,[],[],images/7.png,0,532,CH,True,0,True,1,50
532,True,1.5,structure_learning,298.088150978,unrot,0,0.744338989258,[],[],images/11.png,3,533,CH,True,0,False,2,52
533,True,1.5,structure_learning,299.593379021,unrot,0,0.540369033813,[],[],images/9.png,2,534,CH,True,0,False,3,58
534,False,1.5,structure_learning,301.098531008,unrot,90,0.702418088913,[],[],images/8.png,1,535,CH,True,0,False,4,56
535,True,1.5,structure_learning,302.604018927,unrot,0,0.689402103424,[],[],images/2.png,4,536,CH,False,0,False,5,61
536,False,1.5,structure_learning,304.109296799,unrot,90,0.627477884293,[],[],images/4.png,5,537,CH,True,1,True,1,66
537,True,1.5,structure_learning,305.615978956,unrot,0,0.796956062317,[],[],images/2.png,4,538,CH,False,0,True,1,2
538,True,1.5,structure_learning,307.12130785,unrot,0,0.982553005219,[],[],images/11.png,3,539,CH,True,0,False,2,6
539,True,1.5,structure_learning,308.626801968,rot,90,0.923495054245,[],[],images/9.png,2,540,CH,True,0,False,3,6
540,True,1.5,structure_learning,310.132194996,unrot,0,0.812449932098,[],[],images/7.png,0,541,CH,True,0,False,4,9
541,True,1.5,structure_learning,311.638710976,unrot,0,0.783635854721,[],[],images/12.png,14,542,CH,True,2,True,1,11
542,False,1.5,structure_learning,313.143934011,-1,90,-1.0,[],[],images/7.png,0,543,CH,True,0,True,1,2
543,True,1.5,structure_learning,314.649158955,rot,90,0.213170051575,['right'],[1.2586209774017334],images/12.png,14,544,CH,False,2,True,1,2
544,True,1.5,structure_learning,316.154307842,unrot,0,0.735963821411,[],[],images/13.png,12,545,CH,True,2,False,2,15
545,True,1.5,structure_learning,317.660845995,unrot,0,0.961361885071,[],[],images/12.png,14,546,CH,True,2,False,3,2
546,True,1.5,structure_learning,319.165912867,unrot,0,0.620921134949,[],[],images/5.png,13,547,CH,True,2,False,4,19
547,True,1.5,structure_learning,320.672618866,unrot,0,0.520519971848,[],[],images/13.png,12,548,CH,True,2,False,5,3
548,True,1.5,structure_learning,322.17788887,unrot,0,0.634803056717,[],[],images/12.png,14,549,CH,True,2,False,6,3
549,True,1.5,structure_learning,323.682852983,unrot,0,0.748564004898,[],[],images/7.png,0,550,CH,True,0,True,1,7
550,True,1.5,structure_learning,325.188199997,unrot,0,0.64021897316,[],[],images/12.png,14,551,CH,True,2,True,1,2
551,False,1.5,structure_learning,326.69340992,unrot,90,0.588025808334,[],[],images/13.png,12,552,CH,True,2,False,2,4
552,True,1.5,structure_learning,328.198438883,unrot,0,0.542019844055,[],[],images/5.png,13,553,CH,False,2,False,3,6
553,True,1.5,structure_learning,329.70486784,unrot,0,0.815025091171,[],[],images/3.png,10,554,CH,True,2,False,4,25
554,True,1.5,structure_learning,331.210405827,unrot,0,0.617541790009,[],[],images/5.png,13,555,CH,True,2,False,5,2
555,True,1.5,structure_learning,332.71705699,unrot,0,0.787704944611,[],[],images/12.png,14,556,CH,True,2,False,6,5
556,True,1.5,structure_learning,334.222260952,unrot,0,0.631876945496,[],[],images/7.png,0,557,CH,True,0,True,1,7
557,True,1.5,structure_learning,335.727444887,unrot,0,0.499907016754,[],[],images/12.png,14,558,CH,True,2,True,1,2
558,True,1.5,structure_learning,337.232538939,unrot,0,0.487289905548,[],[],images/5.png,13,559,CH,True,2,False,2,4
559,True,1.5,structure_learning,338.737934828,unrot,0,0.60951089859,[],[],images/14.png,11,560,CH,True,2,False,3,36
560,True,1.5,structure_learning,340.243042946,unrot,0,0.485394001007,[],[],images/12.png,14,561,CH,True,2,False,4,3
561,True,1.5,structure_learning,341.748185873,unrot,0,0.528090000153,[],[],images/13.png,12,562,CH,True,2,False,5,10
562,True,1.5,structure_learning,343.253350019,unrot,0,0.555245161057,[],[],images/14.png,11,563,CH,True,2,False,6,3
563,False,1.5,structure_learning,344.75840497,unrot,90,0.805026054382,[],[],images/13.png,12,564,CH,True,2,False,7,2
564,True,1.5,structure_learning,346.263597012,unrot,0,0.513528108597,[],[],images/5.png,13,565,CH,False,2,False,8,6
565,True,1.5,structure_learning,347.768940926,unrot,0,0.668244123459,[],[],images/12.png,14,566,CH,True,2,False,9,5
566,True,1.5,structure_learning,349.274040937,rot,90,0.864148139954,[],[],images/14.png,11,567,CH,True,2,False,10,4
567,True,1.5,structure_learning,350.778993845,unrot,0,0.707170009613,[],[],images/13.png,12,568,CH,True,2,False,11,4
568,True,1.5,structure_learning,352.284044981,rot,90,0.966022014618,[],[],images/5.png,13,569,CH,True,2,False,12,4
569,True,1.5,structure_learning,353.789230824,unrot,0,0.72150182724,[],[],images/13.png,12,570,CH,True,2,False,13,2
570,True,1.5,structure_learning,355.294341803,unrot,0,0.796001911163,[],[],images/12.png,14,571,CH,True,2,False,14,5
571,True,1.5,structure_learning,356.799377918,rot,90,0.975796937943,[],[],images/7.png,0,572,CH,True,0,True,1,15
572,True,1.5,structure_learning,358.304574013,unrot,0,0.729081869125,[],[],images/8.png,1,573,CH,True,0,False,2,38
573,True,1.5,structure_learning,359.811219931,unrot,0,0.86736702919,[],[],images/7.png,0,574,CH,True,0,False,3,2
574,False,1.5,structure_learning,361.316404819,unrot,90,0.671880960464,[],[],images/12.png,14,575,CH,True,2,True,1,4
575,False,1.5,structure_learning,362.821592808,-1,0,-1.0,[],[],images/7.png,0,576,CH,False,0,True,1,2
576,True,1.5,structure_learning,364.326963902,unrot,0,0.804869890213,[],[],images/11.png,3,577,CH,False,0,False,2,38
577,True,1.5,structure_learning,365.833823919,unrot,0,0.569469928741,[],[],images/8.png,1,578,CH,True,0,False,3,5
578,True,1.5,structure_learning,367.339161873,unrot,0,0.779402017593,[],[],images/9.png,2,579,CH,True,0,False,4,39
579,True,1.5,structure_learning,368.844371796,unrot,0,1.18603897095,[],[],images/11.png,3,580,CH,True,0,False,5,3
580,True,1.5,structure_learning,370.351004839,unrot,0,0.569125890732,[],[],images/9.png,2,581,CH,True,0,False,6,2
581,True,1.5,structure_learning,371.856395006,unrot,0,1.04883217812,[],[],images/11.png,3,582,CH,True,0,False,7,2
582,True,1.5,structure_learning,373.36152792,rot,90,1.26023411751,[],[],images/7.png,0,583,CH,True,0,False,8,7
583,True,1.5,structure_learning,374.866645813,unrot,0,0.681404829025,[],[],images/12.png,14,584,CH,True,2,True,1,9
584,True,1.5,structure_learning,376.372064829,unrot,0,0.549469232559,[],[],images/13.png,12,585,CH,True,2,False,2,15
585,True,1.5,structure_learning,377.877156973,rot,90,0.909929037094,[],[],images/5.png,13,586,CH,True,2,False,3,17
586,True,1.5,structure_learning,379.383630991,unrot,0,0.593860864639,[],[],images/13.png,12,587,CH,True,2,False,4,2
587,False,1.5,structure_learning,380.888705969,unrot,90,0.516469955444,[],[],images/12.png,14,588,CH,True,2,False,5,4
588,True,1.5,structure_learning,382.394757986,unrot,0,0.764745950699,[],[],images/14.png,11,589,CH,False,2,False,6,22
589,False,1.5,structure_learning,383.901329994,unrot,90,0.854385137558,[],[],images/13.png,12,590,CH,True,2,False,7,3
590,True,1.5,structure_learning,385.406513929,unrot,0,0.603117227554,[],[],images/14.png,11,591,CH,False,2,False,8,2
591,True,1.5,structure_learning,386.911600828,unrot,0,0.932449102402,[],[],images/12.png,14,592,CH,True,2,False,9,4
592,True,1.5,structure_learning,388.416712999,unrot,0,0.569657087326,[],[],images/13.png,12,593,CH,True,2,False,10,3
593,True,1.5,structure_learning,389.921751976,unrot,0,0.56455206871,[],[],images/14.png,11,594,CH,True,2,False,11,3
594,True,1.5,structure_learning,391.426834822,unrot,0,0.87574505806,[],[],images/3.png,10,595,CH,True,2,False,12,41
595,True,1.5,structure_learning,392.933669806,unrot,0,0.814733028412,[],[],images/5.png,13,596,CH,True,2,False,13,10
596,True,1.5,structure_learning,394.439004898,rot,90,0.818968057632,[],[],images/3.png,10,597,CH,True,2,False,14,2
597,True,1.5,structure_learning,395.944231987,unrot,0,0.613606929779,[],[],images/5.png,13,598,CH,True,2,False,15,2
598,True,1.5,structure_learning,397.449450016,unrot,0,0.569041967392,[],[],images/13.png,12,599,CH,True,2,False,16,6
599,True,1.5,structure_learning,398.954623938,unrot,0,0.635739088058,[],[],images/14.png,11,600,CH,True,2,False,17,6
600,True,1.5,structure_learning,400.459877968,unrot,0,0.591089963913,[],[],images/13.png,12,601,CH,True,2,False,18,2
601,True,1.5,structure_learning,401.964963913,unrot,0,0.602149963379,[],[],images/5.png,13,602,CH,True,2,False,19,4
602,True,1.5,structure_learning,403.470083952,unrot,0,0.597491979599,[],[],images/3.png,10,603,CH,True,2,False,20,6
603,True,1.5,structure_learning,404.975179911,unrot,0,0.609236001968,[],[],images/15.png,9,604,CH,True,1,True,1,105
604,True,1.5,structure_learning,406.480238914,unrot,0,0.786957979202,[],[],images/1.png,8,605,CH,True,1,False,2,136
605,False,1.5,structure_learning,407.985346794,unrot,90,0.980839014053,[],[],images/4.png,5,606,CH,True,1,False,3,69
606,False,1.5,structure_learning,409.490357876,unrot,90,0.927958011627,[],[],images/2.png,4,607,CH,False,0,True,1,69
607,True,1.5,structure_learning,410.995559931,rot,90,1.17917203903,[],[],images/4.png,5,608,CH,False,1,True,1,2
608,True,1.5,structure_learning,412.500666857,rot,90,1.27288818359,[],[],images/2.png,4,609,CH,True,0,True,1,2
609,True,1.5,structure_learning,414.010113001,unrot,0,0.646580934525,[],[],images/8.png,1,610,CH,True,0,False,2,32
610,True,1.5,structure_learning,415.515267849,unrot,0,0.712914943695,[],[],images/2.png,4,611,CH,True,0,False,3,2
611,True,1.5,structure_learning,417.0205338,rot,90,0.914988994598,[],[],images/4.png,5,612,CH,True,1,True,1,4
612,False,1.5,structure_learning,418.526947975,unrot,90,1.39223599434,[],[],images/10.png,7,613,CH,True,1,False,2,195
613,True,1.5,structure_learning,420.033442974,unrot,0,0.775170087814,[],[],images/15.png,9,614,CH,False,1,False,3,10
614,True,1.5,structure_learning,421.538708925,unrot,0,0.698243141174,[],[],images/6.png,6,615,CH,True,1,False,4,145
615,True,1.5,structure_learning,423.044087887,unrot,0,0.621793031693,[],[],images/4.png,5,616,CH,True,1,False,5,4
616,True,1.5,structure_learning,424.549314976,unrot,0,0.781903028488,[],[],images/2.png,4,617,CH,True,0,True,1,6
617,True,1.5,structure_learning,426.055952787,unrot,0,0.569309949875,[],[],images/4.png,5,618,CH,True,1,True,1,2
618,True,1.5,structure_learning,427.562492847,unrot,0,0.571752071381,[],[],images/1.png,8,619,CH,True,1,False,2,14
619,True,1.5,structure_learning,429.067739964,unrot,0,0.526827096939,[],[],images/15.png,9,620,CH,True,1,False,3,6
620,True,1.5,structure_learning,430.573038816,unrot,0,0.47341799736,[],[],images/6.png,6,621,CH,True,1,False,4,6
621,True,1.5,structure_learning,432.079499006,unrot,0,0.460488080978,[],[],images/4.png,5,622,CH,True,1,False,5,4
622,True,1.5,structure_learning,433.584656,unrot,0,0.66219997406,[],[],images/6.png,6,623,CH,True,1,False,6,2
623,True,1.5,structure_learning,435.089884996,unrot,0,0.560023069382,[],[],images/4.png,5,624,CH,True,1,False,7,2
624,False,1.5,structure_learning,436.596397877,unrot,90,0.673862218857,[],[],images/10.png,7,625,CH,True,1,False,8,12
625,True,1.5,structure_learning,438.101792812,unrot,0,0.747931957245,[],[],images/4.png,5,626,CH,False,1,False,9,2
626,False,1.5,structure_learning,439.607043982,rot,0,1.37231111526,[],[],images/10.png,7,627,CH,True,1,False,10,2
627,True,1.5,structure_learning,441.112154961,unrot,0,0.682126998901,[],[],images/15.png,9,628,CH,False,1,False,11,8
628,True,1.5,structure_learning,442.617342949,unrot,0,0.915245056152,[],[],images/10.png,7,629,CH,True,1,False,12,2
629,True,1.5,structure_learning,444.122442007,unrot,0,0.60011100769,[],[],images/6.png,6,630,CH,True,1,False,13,7
630,True,1.5,structure_learning,445.627595901,unrot,0,0.60303902626,[],[],images/10.png,7,631,CH,True,1,False,14,2
631,True,1.5,structure_learning,447.132790804,unrot,0,0.597836971283,[],[],images/15.png,9,632,CH,True,1,False,15,4
632,True,1.5,structure_learning,448.638002872,unrot,0,0.680083990097,[],[],images/3.png,10,633,CH,True,2,True,1,30
633,True,1.5,structure_learning,450.143388987,unrot,0,0.428769826889,[],[],images/14.png,11,634,CH,True,2,False,2,34
634,True,1.5,structure_learning,451.648510933,unrot,0,0.407684087753,[],[],images/3.png,10,635,CH,True,2,False,3,2
635,True,1.5,structure_learning,453.153839827,unrot,0,0.664838075638,[],[],images/13.png,12,636,CH,True,2,False,4,35
636,True,1.5,structure_learning,454.658994913,unrot,0,0.795262813568,[],[],images/12.png,14,637,CH,True,2,False,5,45
637,True,1.5,structure_learning,456.164252996,unrot,0,0.376900911331,[],[],images/5.png,13,638,CH,True,2,False,6,36
638,True,1.5,structure_learning,457.669461966,unrot,0,0.372167825699,[],[],images/13.png,12,639,CH,True,2,False,7,3
639,True,1.5,structure_learning,459.174347878,unrot,0,0.406821966171,[],[],images/5.png,13,640,CH,True,2,False,8,2
640,False,1.5,structure_learning,460.679441929,unrot,90,0.314096927643,[],[],images/12.png,14,641,CH,True,2,False,9,4
641,True,1.5,structure_learning,462.184640884,unrot,0,0.794188976288,[],[],images/7.png,0,642,CH,False,0,True,1,59
642,False,1.5,structure_learning,463.689606905,unrot,90,0.892421960831,[],[],images/8.png,1,643,CH,True,0,False,2,33
643,True,1.5,structure_learning,465.194952011,unrot,0,0.799848079681,[],[],images/7.png,0,644,CH,False,0,False,3,2
644,True,1.5,structure_learning,466.700181961,unrot,0,0.921862125397,[],[],images/8.png,1,645,CH,True,0,False,4,2
645,True,1.5,structure_learning,468.20517087,unrot,0,0.662546873093,[],[],images/9.png,2,646,CH,True,0,False,5,65
646,True,1.5,structure_learning,469.710307837,unrot,0,0.609611034393,[],[],images/8.png,1,647,CH,True,0,False,6,2
647,True,1.5,structure_learning,471.215497971,unrot,0,0.947099924088,[],[],images/11.png,3,648,CH,True,0,False,7,66
648,False,1.5,structure_learning,472.720639944,unrot,90,0.814733028412,[],[],images/8.png,1,649,CH,True,0,False,8,2
649,True,1.5,structure_learning,474.225857019,unrot,0,0.547827005386,[],[],images/11.png,3,650,CH,False,0,False,9,2
650,True,1.5,structure_learning,475.73097086,unrot,0,0.61422085762,[],[],images/8.png,1,651,CH,True,0,False,10,2
651,True,1.5,structure_learning,477.236244917,unrot,0,0.776095151901,[],[],images/2.png,4,652,CH,True,0,False,11,35
652,True,1.5,structure_learning,478.741426945,unrot,0,0.993414163589,[],[],images/11.png,3,653,CH,True,0,False,12,3
653,True,1.5,structure_learning,480.246750832,unrot,0,0.527053117752,[],[],images/9.png,2,654,CH,True,0,False,13,8
654,True,1.5,structure_learning,481.751940966,unrot,0,0.721023797989,[],[],images/2.png,4,655,CH,True,0,False,14,3
655,True,1.5,structure_learning,483.257156849,unrot,0,0.581079006195,[],[],images/8.png,1,656,CH,True,0,False,15,5
656,False,1.5,structure_learning,484.762338877,unrot,90,0.989381074905,[],[],images/2.png,4,657,CH,True,0,False,16,2
657,True,1.5,structure_learning,486.267728806,unrot,0,0.722302913666,[],[],images/11.png,3,658,CH,False,0,False,17,5
658,True,1.5,structure_learning,487.772975922,unrot,0,0.542323827744,[],[],images/9.png,2,659,CH,True,0,False,18,5
659,True,1.5,structure_learning,489.278138876,rot,90,1.05580186844,[],[],images/11.png,3,660,CH,True,0,False,19,2
660,True,1.5,structure_learning,490.783289909,unrot,0,0.643747091293,[],[],images/2.png,4,661,CH,True,0,False,20,4
661,True,1.5,structure_learning,492.288393021,unrot,0,0.551532030106,[],[],images/8.png,1,662,CH,True,0,False,21,6
662,True,1.5,structure_learning,493.793610811,unrot,0,0.936002016068,[],[],images/7.png,0,663,CH,True,0,False,22,19
663,True,1.5,structure_learning,495.298683882,unrot,0,0.89151096344,[],[],images/12.png,14,664,CH,True,2,True,1,23
664,True,1.5,structure_learning,496.80388689,rot,90,1.01502513885,[],[],images/14.png,11,665,CH,True,2,False,2,31
665,True,1.5,structure_learning,498.308805943,unrot,0,0.658159017563,[],[],images/3.png,10,666,CH,True,2,False,3,31
666,True,1.5,structure_learning,499.814458847,unrot,0,0.643974065781,[],[],images/13.png,12,667,CH,True,2,False,4,28
667,True,1.5,structure_learning,8.29696655273e-05,unrot,0,0.898637056351,[],[],images/5.png,13,668,CH,True,2,False,5,28
668,True,1.5,structure_learning,1.5079190731,unrot,0,0.495179891586,[],[],images/3.png,10,669,CH,True,2,False,6,3
669,True,1.5,structure_learning,3.01447296143,unrot,0,0.561718225479,[],[],images/5.png,13,670,CH,True,2,False,7,2
670,True,1.5,structure_learning,4.51943516731,unrot,0,0.541218996048,[],[],images/14.png,11,671,CH,True,2,False,8,6
671,True,1.5,structure_learning,6.0244910717,rot,90,0.792365074158,[],[],images/3.png,10,672,CH,True,2,False,9,3
672,True,1.5,structure_learning,7.52968716621,rot,90,0.90682721138,[],[],images/13.png,12,673,CH,True,2,False,10,6
673,True,1.5,structure_learning,9.03489303589,unrot,0,0.582774877548,[],[],images/5.png,13,674,CH,True,2,False,11,4
674,True,1.5,structure_learning,10.539951086,rot,90,0.825757980347,[],[],images/3.png,10,675,CH,True,2,False,12,3
675,True,1.5,structure_learning,12.0451440811,unrot,0,0.533200025558,[],[],images/5.png,13,676,CH,True,2,False,13,2
676,True,1.5,structure_learning,13.5501890182,rot,90,0.85450220108,[],[],images/3.png,10,677,CH,True,2,False,14,2
677,True,1.5,structure_learning,15.0567610264,unrot,0,0.57031083107,[],[],images/14.png,11,678,CH,True,2,False,15,7
678,True,1.5,structure_learning,16.5616900921,unrot,0,0.533362150192,[],[],images/3.png,10,679,CH,True,2,False,16,2
679,True,1.5,structure_learning,18.0671441555,unrot,0,0.544345140457,[],[],images/13.png,12,680,CH,True,2,False,17,7
680,True,1.5,structure_learning,19.572245121,unrot,0,0.555842876434,[],[],images/5.png,13,681,CH,True,2,False,18,5
681,True,1.5,structure_learning,21.0773220062,rot,90,0.95739197731,[],[],images/3.png,10,682,CH,True,2,False,19,3
682,True,1.5,structure_learning,22.5826160908,unrot,0,0.561180114746,[],[],images/13.png,12,683,CH,True,2,False,20,3
683,True,1.5,structure_learning,24.0876250267,unrot,0,0.476605892181,[],[],images/3.png,10,684,CH,True,2,False,21,2
684,True,1.5,structure_learning,25.5929760933,unrot,0,0.527149915695,[],[],images/5.png,13,685,CH,True,2,False,22,4
685,True,1.5,structure_learning,27.0981271267,unrot,0,0.522045135498,[],[],images/14.png,11,686,CH,True,2,False,23,8
686,True,1.5,structure_learning,28.6031939983,rot,90,0.898531913757,[],[],images/3.png,10,687,CH,True,2,False,24,3
687,True,1.5,structure_learning,30.1101090908,unrot,0,0.51726102829,[],[],images/14.png,11,688,CH,True,2,False,25,2
688,True,1.5,structure_learning,31.6164591312,unrot,0,0.885782957077,[],[],images/12.png,14,689,CH,True,2,False,26,25
689,True,1.5,structure_learning,33.121680975,unrot,0,0.507654905319,[],[],images/14.png,11,690,CH,True,2,False,27,2
690,True,1.5,structure_learning,34.6266989708,unrot,0,0.423243999481,[],[],images/12.png,14,691,CH,True,2,False,28,2
691,True,1.5,structure_learning,36.1318900585,unrot,0,0.575843095779,[],[],images/5.png,13,692,CH,True,2,False,29,7
692,True,1.5,structure_learning,37.6381909847,unrot,0,0.404163122177,[],[],images/13.png,12,693,CH,True,2,False,30,10
693,True,1.5,structure_learning,39.1432321072,unrot,0,0.677724838257,[],[],images/12.png,14,694,CH,True,2,False,31,3
694,True,1.5,structure_learning,40.6481940746,unrot,0,0.472896814346,[],[],images/13.png,12,695,CH,True,2,False,32,2
695,True,1.5,structure_learning,42.1544861794,unrot,0,0.316726922989,[],[],images/3.png,10,696,CH,True,2,False,33,9
696,True,1.5,structure_learning,43.6598961353,unrot,0,0.621954917908,[],[],images/14.png,11,697,CH,True,2,False,34,7
697,True,1.5,structure_learning,45.1648771763,unrot,0,0.584990978241,[],[],images/13.png,12,698,CH,True,2,False,35,3
698,True,1.5,structure_learning,46.6703250408,unrot,0,0.58689904213,[],[],images/3.png,10,699,CH,True,2,False,36,3
699,True,1.5,structure_learning,48.1767880917,unrot,0,0.565806865692,[],[],images/5.png,13,700,CH,True,2,False,37,8
700,True,1.5,structure_learning,49.6818521023,unrot,0,0.80575799942,[],[],images/12.png,14,701,CH,True,2,False,38,7
701,True,1.5,structure_learning,51.1884009838,rot,90,0.967441082001,[],[],images/14.png,11,702,CH,True,2,False,39,5
702,True,1.5,structure_learning,52.6947801113,unrot,0,0.562038898468,[],[],images/3.png,10,703,CH,True,2,False,40,4
703,True,1.5,structure_learning,54.2009849548,unrot,0,0.573101043701,[],[],images/13.png,12,704,CH,True,2,False,41,6
704,True,1.5,structure_learning,55.7060530186,rot,90,0.966534852982,[],[],images/5.png,13,705,CH,True,2,False,42,5
705,True,1.5,structure_learning,57.2112641335,unrot,0,0.490980863571,[],[],images/13.png,12,706,CH,True,2,False,43,2
706,True,1.5,structure_learning,58.7162511349,unrot,0,0.589342832565,[],[],images/14.png,11,707,CH,True,2,False,44,5
707,True,1.5,structure_learning,60.2211899757,unrot,0,0.536906957626,[],[],images/13.png,12,708,CH,True,2,False,45,2
708,True,1.5,structure_learning,61.7262141705,unrot,0,0.635411024094,[],[],images/5.png,13,709,CH,True,2,False,46,4
709,True,1.5,structure_learning,63.2312600613,unrot,0,0.65311217308,[],[],images/13.png,12,710,CH,True,2,False,47,2
710,True,1.5,structure_learning,64.7374391556,unrot,0,0.624372005463,[],[],images/5.png,13,711,CH,True,2,False,48,2
711,True,1.5,structure_learning,66.2427201271,rot,90,0.947252988815,[],[],images/12.png,14,712,CH,True,2,False,49,11
712,True,1.5,structure_learning,67.7477650642,rot,90,0.916818141937,[],[],images/7.png,0,713,CH,True,0,True,1,50
713,True,1.5,structure_learning,69.2542431355,unrot,0,0.719737052917,[],[],images/9.png,2,714,CH,True,0,False,2,55
714,True,1.5,structure_learning,70.7593991756,unrot,0,1.04058098793,[],[],images/11.png,3,715,CH,True,0,False,3,55
715,True,1.5,structure_learning,72.2644481659,unrot,0,0.574674129486,[],[],images/2.png,4,716,CH,True,0,False,4,55
716,True,1.5,structure_learning,73.7696909904,unrot,0,0.600003957748,[],[],images/9.png,2,717,CH,True,0,False,5,3
717,True,1.5,structure_learning,75.2763199806,rot,90,0.819107055664,[],[],images/8.png,1,718,CH,True,0,False,6,56
718,True,1.5,structure_learning,76.7816541195,unrot,0,0.908130884171,[],[],images/2.png,4,719,CH,True,0,False,7,3
719,True,1.5,structure_learning,78.2870280743,unrot,0,0.616673946381,[],[],images/9.png,2,720,CH,True,0,False,8,3
720,True,1.5,structure_learning,79.7921171188,unrot,0,0.587835788727,[],[],images/8.png,1,721,CH,True,0,False,9,3
721,True,1.5,structure_learning,81.297260046,rot,90,0.942013978958,[],[],images/7.png,0,722,CH,True,0,False,10,9
722,True,1.5,structure_learning,82.8023910522,unrot,0,0.561621189117,[],[],images/8.png,1,723,CH,True,0,False,11,2
723,True,1.5,structure_learning,84.3076930046,unrot,0,0.572010993958,[],[],images/9.png,2,724,CH,True,0,False,12,4
724,True,1.5,structure_learning,85.8131670952,unrot,0,0.590574026108,[],[],images/8.png,1,725,CH,True,0,False,13,2
725,True,1.5,structure_learning,87.318529129,unrot,0,0.760432958603,[],[],images/11.png,3,726,CH,True,0,False,14,11
726,True,1.5,structure_learning,88.8237659931,unrot,0,0.549005031586,[],[],images/9.png,2,727,CH,True,0,False,15,3
727,True,1.5,structure_learning,90.3288331032,unrot,0,0.766252040863,[],[],images/2.png,4,728,CH,True,0,False,16,9
728,True,1.5,structure_learning,91.8340370655,unrot,0,0.672259092331,[],[],images/4.png,5,729,CH,True,1,True,1,103
729,True,1.5,structure_learning,93.340485096,unrot,0,0.976853847504,[],[],images/10.png,7,730,CH,True,1,False,2,99
730,True,1.5,structure_learning,94.8454730511,unrot,0,1.25022006035,[],[],images/4.png,5,731,CH,True,1,False,3,2
731,False,1.5,structure_learning,96.3505489826,unrot,90,1.07022213936,[],[],images/1.png,8,732,CH,True,1,False,4,113
732,False,1.5,structure_learning,97.8557260036,unrot,90,1.36521100998,[],[],images/6.png,6,733,CH,False,1,False,5,103
733,False,1.5,structure_learning,99.3621790409,-1,0,-1.0,[],[],images/4.png,5,734,CH,False,1,False,6,3
734,False,1.5,structure_learning,100.867213011,unrot,90,0.00591397285461,[],[],images/1.png,8,735,CH,False,1,False,7,3
735,True,1.5,structure_learning,102.372354031,unrot,0,0.613083839417,[],[],images/4.png,5,736,CH,False,1,False,8,2
736,False,1.5,structure_learning,103.877323151,unrot,90,0.814197063446,[],[],images/1.png,8,737,CH,True,1,False,9,2
737,True,1.5,structure_learning,105.382857084,unrot,0,0.82487988472,[],[],images/6.png,6,738,CH,False,1,False,10,5
738,False,1.5,structure_learning,106.888189077,rot,0,1.05177998543,[],[],images/1.png,8,739,CH,True,1,False,11,2
739,True,1.5,structure_learning,108.393272161,unrot,0,0.608203887939,[],[],images/4.png,5,740,CH,False,1,False,12,4
740,True,1.5,structure_learning,109.898314953,unrot,0,0.841341972351,[],[],images/1.png,8,741,CH,True,1,False,13,2
741,True,1.5,structure_learning,111.403558969,rot,90,1.02840399742,[],[],images/15.png,9,742,CH,True,1,False,14,110
742,True,1.5,structure_learning,112.908569098,unrot,0,0.807131052017,[],[],images/10.png,7,743,CH,True,1,False,15,13
743,True,1.5,structure_learning,114.413589001,unrot,0,1.23963999748,[],[],images/1.png,8,744,CH,True,1,False,16,3
744,True,1.5,structure_learning,115.918765068,unrot,0,0.781368970871,[],[],images/10.png,7,745,CH,True,1,False,17,2
745,True,1.5,structure_learning,117.423906088,unrot,0,0.830273866653,[],[],images/1.png,8,746,CH,True,1,False,18,2
746,True,1.5,structure_learning,118.93019104,unrot,0,0.928564071655,[],[],images/15.png,9,747,CH,True,1,False,19,5
747,True,1.5,structure_learning,120.435381174,unrot,0,0.669032096863,[],[],images/1.png,8,748,CH,True,1,False,20,2
748,False,1.5,structure_learning,121.940695047,-1,90,-1.0,[],[],images/6.png,6,749,CH,True,1,False,21,11
749,False,1.5,structure_learning,123.446130037,unrot,90,0.168103218079,[],[],images/15.png,9,750,CH,False,1,False,22,3
750,True,1.5,structure_learning,124.951243162,unrot,0,0.600167989731,[],[],images/1.png,8,751,CH,False,1,False,23,3
751,True,1.5,structure_learning,126.456237078,rot,90,1.33351492882,[],[],images/4.png,5,752,CH,True,1,False,24,12
752,True,1.5,structure_learning,127.962972164,unrot,0,0.881361961365,[],[],images/10.png,7,753,CH,True,1,False,25,8
753,True,1.5,structure_learning,129.468562126,unrot,0,0.994860172272,[],[],images/1.png,8,754,CH,True,1,False,26,3
754,True,1.5,structure_learning,130.974397182,unrot,0,0.846348047256,[],[],images/15.png,9,755,CH,True,1,False,27,5
755,True,1.5,structure_learning,132.47956109,unrot,0,0.650612831116,[],[],images/1.png,8,756,CH,True,1,False,28,2
756,True,1.5,structure_learning,133.984621048,unrot,0,0.589929819107,[],[],images/6.png,6,757,CH,True,1,False,29,8
757,True,1.5,structure_learning,135.489747047,unrot,0,0.631101131439,[],[],images/15.png,9,758,CH,True,1,False,30,3
758,False,1.5,structure_learning,136.996011972,unrot,90,0.625982046127,[],[],images/10.png,7,759,CH,True,1,False,31,6
759,True,1.5,structure_learning,138.501183987,unrot,0,0.723223924637,[],[],images/4.png,5,760,CH,False,1,False,32,8
760,True,1.5,structure_learning,140.007544994,unrot,0,0.74969291687,[],[],images/1.png,8,761,CH,True,1,False,33,5
761,True,1.5,structure_learning,141.512791157,unrot,0,0.545427799225,[],[],images/6.png,6,762,CH,True,1,False,34,5
762,True,1.5,structure_learning,143.018177032,unrot,0,0.571931838989,[],[],images/15.png,9,763,CH,True,1,False,35,5
763,True,1.5,structure_learning,144.523254156,unrot,0,0.526969909668,[],[],images/6.png,6,764,CH,True,1,False,36,2
764,True,1.5,structure_learning,146.028558969,unrot,0,0.981006145477,[],[],images/1.png,8,765,CH,True,1,False,37,4
765,True,1.5,structure_learning,147.535151005,unrot,0,0.92792391777,[],[],images/10.png,7,766,CH,True,1,False,38,7
766,True,1.5,structure_learning,149.04036808,rot,90,0.924403905869,[],[],images/15.png,9,767,CH,True,1,False,39,4
767,True,1.5,structure_learning,150.5455091,unrot,0,0.766366958618,[],[],images/1.png,8,768,CH,True,1,False,40,3
768,True,1.5,structure_learning,152.051154137,unrot,0,1.16622805595,[],[],images/15.png,9,769,CH,True,1,False,41,2
769,True,1.5,structure_learning,153.556225061,unrot,0,0.636650085449,[],[],images/1.png,8,770,CH,True,1,False,42,2
770,True,1.5,structure_learning,155.061571121,unrot,0,0.623110055923,[],[],images/6.png,6,771,CH,True,1,False,43,7
771,True,1.5,structure_learning,156.566990137,unrot,0,0.562343120575,[],[],images/4.png,5,772,CH,True,1,False,44,12
772,True,1.5,structure_learning,158.072080135,unrot,0,0.620231866837,[],[],images/10.png,7,773,CH,True,1,False,45,7
773,True,1.5,structure_learning,159.57737112,unrot,0,0.57396197319,[],[],images/4.png,5,774,CH,True,1,False,46,2
774,True,1.5,structure_learning,161.084041119,unrot,0,0.735150098801,[],[],images/2.png,4,775,CH,True,0,True,1,47
775,True,1.5,structure_learning,162.589365005,unrot,0,0.537508964539,[],[],images/9.png,2,776,CH,True,0,False,2,49
776,True,1.5,structure_learning,164.09594202,unrot,0,0.659324884415,[],[],images/7.png,0,777,CH,True,0,False,3,55
777,True,1.5,structure_learning,165.601263046,unrot,0,0.796937227249,[],[],images/11.png,3,778,CH,True,0,False,4,52
778,True,1.5,structure_learning,167.106525183,unrot,0,0.441557884216,[],[],images/2.png,4,779,CH,True,0,False,5,4
779,True,1.5,structure_learning,168.611902952,rot,90,0.882844924927,[],[],images/9.png,2,780,CH,True,0,False,6,4
780,True,1.5,structure_learning,170.117100954,rot,90,0.853481054306,[],[],images/8.png,1,781,CH,True,0,False,7,56
781,True,1.5,structure_learning,171.622429132,unrot,0,0.751889944077,[],[],images/11.png,3,782,CH,True,0,False,8,4
782,True,1.5,structure_learning,173.127499104,rot,90,0.86740398407,[],[],images/8.png,1,783,CH,True,0,False,9,2
783,True,1.5,structure_learning,174.632665157,unrot,0,0.709772109985,[],[],images/2.png,4,784,CH,True,0,False,10,5
784,False,1.5,structure_learning,176.137919188,unrot,90,1.16582584381,[],[],images/11.png,3,785,CH,True,0,False,11,3
785,True,1.5,structure_learning,177.643081188,rot,90,1.17695903778,[],[],images/8.png,1,786,CH,False,0,False,12,3
786,True,1.5,structure_learning,179.149470091,rot,90,1.0050470829,[],[],images/7.png,0,787,CH,True,0,False,13,10
787,True,1.5,structure_learning,180.654464006,rot,90,0.976289987564,[],[],images/11.png,3,788,CH,True,0,False,14,3
788,True,1.5,structure_learning,182.15971899,unrot,0,0.91402387619,[],[],images/7.png,0,789,CH,True,0,False,15,2
789,True,1.5,structure_learning,183.664801121,rot,90,0.910218000412,[],[],images/11.png,3,790,CH,True,0,False,16,2
790,True,1.5,structure_learning,185.170122147,unrot,0,0.697071075439,[],[],images/9.png,2,791,CH,True,0,False,17,11
791,True,1.5,structure_learning,186.675307035,unrot,0,0.882230997086,[],[],images/8.png,1,792,CH,True,0,False,18,6
792,True,1.5,structure_learning,188.180569172,unrot,0,0.583068847656,[],[],images/9.png,2,793,CH,True,0,False,19,2
793,True,1.5,structure_learning,189.6857481,unrot,0,0.641995191574,[],[],images/2.png,4,794,CH,True,0,False,20,10
794,True,1.5,structure_learning,191.190986156,rot,90,0.804115056992,[],[],images/11.png,3,795,CH,True,0,False,21,5
795,True,1.5,structure_learning,192.697345972,rot,90,0.757977962494,[],[],images/8.png,1,796,CH,True,0,False,22,4
796,False,1.5,structure_learning,194.203865051,rot,0,0.561993837357,[],[],images/11.png,3,797,CH,True,0,False,23,2
797,True,1.5,structure_learning,195.70907402,unrot,0,0.913336992264,[],[],images/7.png,0,798,CH,False,0,False,24,9
798,True,1.5,structure_learning,197.214087009,unrot,0,0.566625118256,[],[],images/9.png,2,799,CH,True,0,False,25,6
799,True,1.5,structure_learning,198.719431162,unrot,0,0.767126083374,[],[],images/7.png,0,800,CH,True,0,False,26,2
800,True,1.5,structure_learning,200.225802183,unrot,0,0.618782043457,[],[],images/11.png,3,801,CH,True,0,False,27,4
801,True,1.5,structure_learning,201.730940104,unrot,0,0.534536123276,[],[],images/8.png,1,802,CH,True,0,False,28,6
802,True,1.5,structure_learning,203.235994101,unrot,0,0.696324110031,[],[],images/11.png,3,803,CH,True,0,False,29,2
803,True,1.5,structure_learning,204.741153002,unrot,0,0.603780984879,[],[],images/2.png,4,804,CH,True,0,False,30,10
804,True,1.5,structure_learning,206.246489048,unrot,0,0.614269971848,[],[],images/4.png,5,805,CH,True,1,True,1,31
805,True,1.5,structure_learning,207.751600027,unrot,0,0.784075975418,[],[],images/1.png,8,806,CH,True,1,False,2,36
806,True,1.5,structure_learning,209.256685972,unrot,0,0.667877912521,[],[],images/15.png,9,807,CH,True,1,False,3,38
807,True,1.5,structure_learning,210.761669159,unrot,0,0.543459892273,[],[],images/3.png,10,808,CH,True,2,True,1,105
808,True,1.5,structure_learning,212.266860008,unrot,0,0.602149009705,[],[],images/13.png,12,809,CH,True,2,False,2,99
809,True,1.5,structure_learning,213.771939993,unrot,0,0.803759098053,[],[],images/12.png,14,810,CH,True,2,False,3,98
810,True,1.5,structure_learning,215.277023077,unrot,0,0.600198984146,[],[],images/7.png,0,811,CH,True,0,True,1,11
811,True,1.5,structure_learning,216.782068968,unrot,0,0.43622803688,[],[],images/12.png,14,812,CH,True,2,True,1,2
812,True,1.5,structure_learning,218.287218094,unrot,0,0.606343984604,[],[],images/13.png,12,813,CH,True,2,False,2,4
813,True,1.5,structure_learning,219.792270184,unrot,0,0.498180866241,[],[],images/12.png,14,814,CH,True,2,False,3,2
814,True,1.5,structure_learning,221.297379017,unrot,0,0.437003135681,[],[],images/7.png,0,815,CH,True,0,True,1,4
815,True,1.5,structure_learning,222.802513123,unrot,0,0.654245138168,[],[],images/9.png,2,816,CH,True,0,False,2,17
816,False,1.5,structure_learning,224.307782173,unrot,90,0.434287071228,[],[],images/7.png,0,817,CH,True,0,False,3,2
817,False,1.5,structure_learning,225.813148975,unrot,90,0.619935035706,[],[],images/12.png,14,818,CH,False,2,True,1,4
818,True,1.5,structure_learning,227.318585157,unrot,0,0.923168897629,[],[],images/14.png,11,819,CH,False,2,False,2,112
819,True,1.5,structure_learning,228.824738026,unrot,0,0.687896966934,[],[],images/13.png,12,820,CH,True,2,False,3,7
820,True,1.5,structure_learning,230.329940081,unrot,0,0.624826908112,[],[],images/14.png,11,821,CH,True,2,False,4,2
821,True,1.5,structure_learning,231.837233067,rot,90,0.994431972504,[],[],images/5.png,13,822,CH,True,2,False,5,111
822,True,1.5,structure_learning,233.342525005,unrot,0,0.654051065445,[],[],images/3.png,10,823,CH,True,2,False,6,15
823,True,1.5,structure_learning,234.847661018,unrot,0,1.05429697037,[],[],images/5.png,13,824,CH,True,2,False,7,2
824,True,1.5,structure_learning,236.3530581,unrot,0,0.889825105667,[],[],images/12.png,14,825,CH,True,2,False,8,7
825,True,1.5,structure_learning,237.858370066,rot,90,0.775121927261,[],[],images/5.png,13,826,CH,True,2,False,9,2
826,True,1.5,structure_learning,239.363558054,unrot,0,0.538023948669,[],[],images/14.png,11,827,CH,True,2,False,10,6
827,True,1.5,structure_learning,240.868838072,unrot,0,0.56453204155,[],[],images/3.png,10,828,CH,True,2,False,11,5
828,True,1.5,structure_learning,242.374281168,unrot,0,0.488136053085,[],[],images/13.png,12,829,CH,True,2,False,12,9
829,True,1.5,structure_learning,243.879251003,unrot,0,0.562820196152,[],[],images/14.png,11,830,CH,True,2,False,13,3
830,True,1.5,structure_learning,245.384183168,unrot,0,0.605762958527,[],[],images/13.png,12,831,CH,True,2,False,14,2
831,True,1.5,structure_learning,246.889110088,unrot,0,0.862545013428,[],[],images/5.png,13,832,CH,True,2,False,15,6
832,True,1.5,structure_learning,248.394173145,rot,90,1.18435001373,[],[],images/3.png,10,833,CH,True,2,False,16,5
833,True,1.5,structure_learning,249.899326086,rot,90,0.964439868927,[],[],images/5.png,13,834,CH,True,2,False,17,2
834,True,1.5,structure_learning,251.404524088,unrot,0,0.623203992844,[],[],images/13.png,12,835,CH,True,2,False,18,4
835,True,1.5,structure_learning,252.909631014,unrot,0,0.889511108398,[],[],images/12.png,14,836,CH,True,2,False,19,11
836,True,1.5,structure_learning,254.414775133,unrot,0,0.525089979172,[],[],images/13.png,12,837,CH,True,2,False,20,2
837,True,1.5,structure_learning,255.921393156,unrot,0,1.05237913132,[],[],images/12.png,14,838,CH,True,2,False,21,2
838,True,1.5,structure_learning,257.426784039,unrot,0,0.546696901321,[],[],images/13.png,12,839,CH,True,2,False,22,2
839,True,1.5,structure_learning,258.931974173,unrot,0,1.13745093346,[],[],images/12.png,14,840,CH,True,2,False,23,2
840,True,1.5,structure_learning,260.437201023,rot,90,1.17174720764,[],[],images/13.png,12,841,CH,True,2,False,24,2
841,True,1.5,structure_learning,261.943703175,unrot,0,1.18881702423,[],[],images/3.png,10,842,CH,True,2,False,25,9
842,True,1.5,structure_learning,263.449048996,unrot,0,0.643347024918,[],[],images/14.png,11,843,CH,True,2,False,26,13
843,True,1.5,structure_learning,264.954138041,unrot,0,0.62918305397,[],[],images/5.png,13,844,CH,True,2,False,27,10
844,True,1.5,structure_learning,266.460677147,unrot,0,0.599901914597,[],[],images/3.png,10,845,CH,True,2,False,28,3
845,True,1.5,structure_learning,267.966014147,unrot,0,0.689944982529,[],[],images/5.png,13,846,CH,True,2,False,29,2
846,True,1.5,structure_learning,269.471457005,unrot,0,0.851701021194,[],[],images/12.png,14,847,CH,True,2,False,30,7
847,True,1.5,structure_learning,270.976699114,unrot,0,0.544326066971,[],[],images/14.png,11,848,CH,True,2,False,31,5
848,True,1.5,structure_learning,272.481794119,unrot,0,0.537403821945,[],[],images/5.png,13,849,CH,True,2,False,32,3
849,True,1.5,structure_learning,273.988569975,rot,90,0.827577114105,[],[],images/3.png,10,850,CH,True,2,False,33,5
850,True,1.5,structure_learning,275.49400115,rot,90,0.988878011703,[],[],images/5.png,13,851,CH,True,2,False,34,2
851,False,1.5,structure_learning,276.99930501,rot,0,0.578285932541,[],[],images/3.png,10,852,CH,True,2,False,35,2
852,True,1.5,structure_learning,278.504624128,unrot,0,0.99964594841,[],[],images/5.png,13,853,CH,False,2,False,36,2
853,True,1.5,structure_learning,280.011043072,unrot,0,0.819396972656,[],[],images/12.png,14,854,CH,True,2,False,37,7
854,True,1.5,structure_learning,281.516206026,unrot,0,0.711004972458,[],[],images/7.png,0,855,CH,True,0,True,1,38
855,True,1.5,structure_learning,283.021504164,rot,90,1.14294505119,[],[],images/9.png,2,856,CH,True,0,False,2,40
856,True,1.5,structure_learning,284.528090954,rot,90,0.970714092255,[],[],images/8.png,1,857,CH,True,0,False,3,55
857,True,1.5,structure_learning,286.033416986,unrot,0,0.787841081619,[],[],images/9.png,2,858,CH,True,0,False,4,2
858,True,1.5,structure_learning,287.540045977,unrot,0,0.623454093933,[],[],images/2.png,4,859,CH,True,0,False,5,55
859,True,1.5,structure_learning,289.045336962,unrot,0,0.713474988937,[],[],images/4.png,5,860,CH,True,1,True,1,55
860,True,1.5,structure_learning,290.550511122,unrot,0,0.882357120514,[],[],images/6.png,6,861,CH,True,1,False,2,90
861,True,1.5,structure_learning,292.056023121,rot,90,1.13263702393,[],[],images/4.png,5,862,CH,True,1,False,3,2
862,True,1.5,structure_learning,293.561258078,rot,90,1.17525887489,[],[],images/1.png,8,863,CH,True,1,False,4,57
863,True,1.5,structure_learning,295.066694021,unrot,0,0.85853099823,[],[],images/4.png,5,864,CH,True,1,False,5,2
864,True,1.5,structure_learning,296.572090149,rot,90,1.09332704544,[],[],images/6.png,6,865,CH,True,1,False,6,4
865,True,1.5,structure_learning,298.077340126,unrot,0,0.880035877228,[],[],images/15.png,9,866,CH,True,1,False,7,59
866,True,1.5,structure_learning,299.582673073,rot,90,1.02730321884,[],[],images/1.png,8,867,CH,True,1,False,8,4
867,True,1.5,structure_learning,301.088088989,unrot,0,0.838037967682,[],[],images/4.png,5,868,CH,True,1,False,9,4
868,False,1.5,structure_learning,302.593254089,unrot,90,1.1111741066,[],[],images/6.png,6,869,CH,True,1,False,10,4
869,True,1.5,structure_learning,304.098562002,unrot,0,1.0586400032,[],[],images/10.png,7,870,CH,False,1,False,11,97
