,correct,duration,exp_stage,onset,response,rotation,rt,secondary_responses,secondary_rts,stim_file,stim_index,trialnum,subjid,correct_shift,congruent_rot,community,community_cross,steps_within_community,steps_since_seen
0,False,1.5,structure_learning,2.020195961,rot,0,0.633893013,[],[],images/7.png,7,1,AB,,False,1,,1,0
1,False,1.5,structure_learning,3.52867388725,rot,0,0.913890123367,[],[],images/9.png,8,2,AB,False,True,1,False,2,0
2,True,1.5,structure_learning,5.03369998932,unrot,0,0.548801898956,[],[],images/4.png,10,3,AB,False,True,1,False,3,0
3,True,1.5,structure_learning,6.53901076317,unrot,0,0.138056993484,['right'],[1.4863379001617432],images/9.png,8,4,AB,True,True,1,False,4,2
4,True,1.5,structure_learning,8.04399180412,unrot,0,1.25818395615,[],[],images/7.png,7,5,AB,True,True,1,False,5,4
5,True,1.5,structure_learning,9.54891777039,unrot,0,1.06930804253,[],[],images/4.png,10,6,AB,True,True,1,False,6,3
6,True,1.5,structure_learning,11.0540039539,unrot,0,1.17475700378,[],[],images/9.png,8,7,AB,True,True,1,False,7,3
7,False,1.5,structure_learning,12.5589799881,unrot,90,0.906918048859,[],[],images/7.png,7,8,AB,True,False,1,False,8,3
8,True,1.5,structure_learning,14.0640227795,unrot,0,1.10747599602,[],[],images/4.png,10,9,AB,False,False,1,False,9,3
9,False,1.5,structure_learning,15.5692949295,rot,0,1.15835094452,[],[],images/3.png,9,10,AB,True,True,1,False,10,0
10,True,1.5,structure_learning,17.0743718147,unrot,0,1.21126413345,[],[],images/10.png,6,11,AB,False,True,1,False,11,0
11,True,1.5,structure_learning,18.5828988552,rot,90,1.07153391838,[],[],images/3.png,9,12,AB,True,False,1,False,12,2
12,False,1.5,structure_learning,20.0881869793,unrot,90,0.926016807556,[],[],images/10.png,6,13,AB,True,True,1,False,13,2
13,False,1.5,structure_learning,21.596175909,rot,0,1.24729800224,[],[],images/9.png,8,14,AB,False,False,1,False,14,7
14,False,1.5,structure_learning,23.1010987759,unrot,90,0.683846950531,[],[],images/7.png,7,15,AB,False,False,1,False,15,7
15,True,1.5,structure_learning,24.6062469482,unrot,0,1.32153105736,[],[],images/9.png,8,16,AB,False,False,1,False,16,2
16,False,1.5,structure_learning,26.1112539768,rot,0,1.15806818008,[],[],images/7.png,7,17,AB,True,True,1,False,17,2
17,True,1.5,structure_learning,27.6165418625,rot,90,1.07269096375,[],[],images/3.png,9,18,AB,False,False,1,False,18,6
18,False,1.5,structure_learning,29.121655941,rot,0,1.07899403572,[],[],images/10.png,6,19,AB,True,False,1,False,19,6
19,False,1.5,structure_learning,30.63002491,rot,0,1.12034916878,[],[],images/3.png,9,20,AB,False,True,1,False,20,2
20,False,1.5,structure_learning,32.1351799965,unrot,90,1.12067699432,[],[],images/7.png,7,21,AB,False,False,1,False,21,4
21,True,1.5,structure_learning,33.6402637959,unrot,0,0.971822977066,[],[],images/3.png,9,22,AB,False,False,1,False,22,2
22,False,1.5,structure_learning,35.145457983,rot,0,1.46767687798,[],[],images/9.png,8,23,AB,True,True,1,False,23,7
23,False,1.5,structure_learning,36.650387764,-1,0,-1.0,[],[],images/10.png,6,24,AB,False,True,1,False,24,5
24,False,1.5,structure_learning,38.6592969894,-1,90,-1.0,[],[],images/9.png,8,25,AB,False,False,1,False,25,2
25,False,1.5,structure_learning,40.6651508808,rot,0,0.809688806534,[],[],images/4.png,10,26,AB,False,False,1,False,26,17
26,True,1.5,structure_learning,42.1701908112,unrot,0,0.436928033829,[],[],images/3.png,9,27,AB,False,True,1,False,27,5
27,True,1.5,structure_learning,43.6755588055,unrot,0,0.689750909805,[],[],images/10.png,6,28,AB,True,True,1,False,28,4
28,True,1.5,structure_learning,45.1839518547,unrot,0,0.676223993301,[],[],images/7.png,7,29,AB,True,True,1,False,29,8
29,True,1.5,structure_learning,46.6890289783,unrot,0,0.702237844467,[],[],images/4.png,10,30,AB,True,True,1,False,30,4
30,False,1.5,structure_learning,48.1941139698,unrot,90,0.942598819733,[],[],images/9.png,8,31,AB,True,False,1,False,31,6
31,True,1.5,structure_learning,49.699187994,unrot,0,0.774816989899,[],[],images/10.png,6,32,AB,False,False,1,False,32,4
32,False,1.5,structure_learning,51.2072467804,rot,0,0.714999914169,[],[],images/7.png,7,33,AB,True,True,1,False,33,4
33,False,1.5,structure_learning,52.7123398781,rot,0,0.987309932709,[],[],images/9.png,8,34,AB,False,True,1,False,34,3
34,False,1.5,structure_learning,54.2173359394,rot,0,1.04528617859,[],[],images/3.png,9,35,AB,False,True,1,False,35,8
35,True,1.5,structure_learning,55.7225399017,unrot,0,0.693679094315,[],[],images/10.png,6,36,AB,False,True,1,False,36,4
36,True,1.5,structure_learning,57.2307038307,unrot,0,0.687470912933,[],[],images/9.png,8,37,AB,True,True,1,False,37,3
37,False,1.5,structure_learning,58.7357239723,unrot,90,0.67355799675,[],[],images/3.png,9,38,AB,True,False,1,False,38,3
38,True,1.5,structure_learning,60.2411079407,unrot,0,0.802237033844,[],[],images/4.png,10,39,AB,False,False,1,False,39,9
39,True,1.5,structure_learning,61.7464997768,unrot,0,0.741006135941,[],[],images/9.png,8,40,AB,True,True,1,False,40,3
40,False,1.5,structure_learning,63.251532793,unrot,90,0.592312097549,[],[],images/7.png,7,41,AB,True,False,1,False,41,8
41,True,1.5,structure_learning,64.7564649582,unrot,0,0.988526105881,[],[],images/10.png,6,42,AB,False,False,1,False,42,6
42,False,1.5,structure_learning,66.2646958828,rot,0,0.968035936356,[],[],images/3.png,9,43,AB,True,True,1,False,43,5
43,True,1.5,structure_learning,67.769854784,rot,90,0.871846914291,[],[],images/10.png,6,44,AB,False,False,1,False,44,2
44,True,1.5,structure_learning,69.2778668404,rot,90,1.12038421631,[],[],images/11.png,5,45,AB,True,True,2,True,1,0
45,False,1.5,structure_learning,70.7830607891,rot,0,1.09056711197,[],[],images/2.png,4,46,AB,True,False,0,True,1,0
46,True,1.5,structure_learning,72.2880988121,unrot,0,1.39330601692,[],[],images/6.png,1,47,AB,False,True,0,False,2,0
47,False,1.5,structure_learning,73.7931468487,rot,0,1.3410859108,[],[],images/1.png,3,48,AB,True,True,0,False,3,0
48,True,1.5,structure_learning,75.2984538078,unrot,0,0.720889091492,[],[],images/8.png,2,49,AB,False,True,0,False,4,0
49,False,1.5,structure_learning,76.8048799038,unrot,90,0.88219499588,[],[],images/1.png,3,50,AB,True,False,0,False,5,2
50,False,1.5,structure_learning,78.3099319935,rot,0,1.03723692894,[],[],images/8.png,2,51,AB,False,False,0,False,6,2
51,True,1.5,structure_learning,79.8148019314,unrot,0,0.887199878693,[],[],images/5.png,0,52,AB,False,True,0,False,7,0
52,True,1.5,structure_learning,81.3196618557,unrot,0,1.03227615356,[],[],images/6.png,1,53,AB,True,True,0,False,8,6
53,True,1.5,structure_learning,82.8246548176,unrot,0,1.01850914955,[],[],images/2.png,4,54,AB,True,True,0,False,9,8
54,False,1.5,structure_learning,84.3298377991,unrot,90,1.04444289207,[],[],images/11.png,5,55,AB,True,False,2,True,1,10
55,True,1.5,structure_learning,85.8348259926,rot,90,0.968677043915,[],[],images/2.png,4,56,AB,False,True,0,True,1,2
56,False,1.5,structure_learning,87.3398208618,rot,0,0.994187831879,[],[],images/8.png,2,57,AB,True,False,0,False,2,6
57,False,1.5,structure_learning,88.8451008797,-1,0,-1.0,[],[],images/5.png,0,58,AB,False,True,0,False,3,6
58,True,1.5,structure_learning,90.8511259556,rot,90,1.00585103035,[],[],images/1.png,3,59,AB,False,False,0,False,4,9
59,True,1.5,structure_learning,92.3561058044,rot,90,0.873148918152,[],[],images/8.png,2,60,AB,True,True,0,False,5,3
60,False,1.5,structure_learning,93.8610239029,rot,0,0.795856952667,[],[],images/5.png,0,61,AB,True,False,0,False,6,3
61,True,1.5,structure_learning,95.3659129143,unrot,0,0.685436010361,[],[],images/6.png,1,62,AB,False,True,0,False,7,9
62,False,1.5,structure_learning,96.8709897995,rot,0,0.942543983459,[],[],images/1.png,3,63,AB,True,True,0,False,8,4
63,True,1.5,structure_learning,98.376254797,unrot,0,0.687855005264,[],[],images/5.png,0,64,AB,False,True,0,False,9,3
64,True,1.5,structure_learning,99.8823258877,unrot,0,1.04780912399,[],[],images/4.png,10,65,AB,True,True,1,True,1,26
65,True,1.5,structure_learning,101.387356997,unrot,0,0.898644924164,[],[],images/3.png,9,66,AB,True,True,1,False,2,23
66,True,1.5,structure_learning,102.892496824,unrot,0,0.797610044479,[],[],images/4.png,10,67,AB,True,True,1,False,3,2
67,True,1.5,structure_learning,104.397578955,unrot,0,0.831022024155,[],[],images/9.png,8,68,AB,True,True,1,False,4,28
68,True,1.5,structure_learning,105.902545929,unrot,0,0.682070016861,[],[],images/4.png,10,69,AB,True,True,1,False,5,2
69,True,1.5,structure_learning,107.407554865,unrot,0,0.847854852676,[],[],images/10.png,6,70,AB,True,True,1,False,6,26
70,True,1.5,structure_learning,108.915590763,unrot,0,1.09654688835,[],[],images/11.png,5,71,AB,True,True,2,True,1,16
71,True,1.5,structure_learning,110.420643806,unrot,0,0.904890060425,[],[],images/10.png,6,72,AB,True,True,1,True,1,2
72,True,1.5,structure_learning,111.928769827,unrot,0,0.859090089798,[],[],images/3.png,9,73,AB,True,True,1,False,2,7
73,True,1.5,structure_learning,113.433962822,unrot,0,0.630735874176,[],[],images/4.png,10,74,AB,True,True,1,False,3,5
74,True,1.5,structure_learning,114.939006805,unrot,0,0.534613847733,[],[],images/10.png,6,75,AB,True,True,1,False,4,3
75,False,1.5,structure_learning,116.447507858,unrot,90,0.814758062363,[],[],images/7.png,7,76,AB,True,False,1,False,5,35
76,True,1.5,structure_learning,117.952629805,unrot,0,0.655116081238,[],[],images/10.png,6,77,AB,False,False,1,False,6,2
77,True,1.5,structure_learning,119.461290836,unrot,0,1.0147550106,[],[],images/11.png,5,78,AB,True,True,2,True,1,7
78,True,1.5,structure_learning,120.966493845,unrot,0,0.711725950241,[],[],images/10.png,6,79,AB,True,True,1,True,1,2
79,True,1.5,structure_learning,122.474812984,unrot,0,0.563074827194,[],[],images/3.png,9,80,AB,True,True,1,False,2,7
80,True,1.5,structure_learning,123.98017478,unrot,0,0.676898002625,[],[],images/9.png,8,81,AB,True,True,1,False,3,13
81,True,1.5,structure_learning,125.485202789,unrot,0,0.540754079819,[],[],images/10.png,6,82,AB,True,True,1,False,4,3
82,True,1.5,structure_learning,126.993362904,unrot,0,0.511182069778,[],[],images/7.png,7,83,AB,True,True,1,False,5,7
83,True,1.5,structure_learning,128.498465776,unrot,0,0.616573810577,[],[],images/4.png,10,84,AB,True,True,1,False,6,10
84,True,1.5,structure_learning,130.003456831,unrot,0,0.587392807007,[],[],images/9.png,8,85,AB,True,True,1,False,7,4
85,False,1.5,structure_learning,131.508359909,unrot,90,0.581326007843,[],[],images/4.png,10,86,AB,True,False,1,False,8,2
86,True,1.5,structure_learning,133.013743877,unrot,0,0.628211975098,[],[],images/10.png,6,87,AB,False,False,1,False,9,5
87,False,1.5,structure_learning,134.52214694,rot,0,0.941359043121,[],[],images/11.png,5,88,AB,True,True,2,True,1,10
88,True,1.5,structure_learning,136.027214766,unrot,0,0.846682786942,[],[],images/2.png,4,89,AB,False,True,0,True,1,33
89,True,1.5,structure_learning,137.532354832,unrot,0,0.880446910858,[],[],images/8.png,2,90,AB,True,True,0,False,2,30
90,True,1.5,structure_learning,139.037286997,unrot,0,0.938014984131,[],[],images/6.png,1,91,AB,True,True,0,False,3,29
91,True,1.5,structure_learning,140.542459965,unrot,0,0.789651155472,[],[],images/1.png,3,92,AB,True,True,0,False,4,29
92,False,1.5,structure_learning,142.047561884,rot,0,0.817509889603,[],[],images/5.png,0,93,AB,True,True,0,False,5,29
93,True,1.5,structure_learning,143.552509785,unrot,0,0.961155891418,[],[],images/1.png,3,94,AB,False,True,0,False,6,2
94,True,1.5,structure_learning,145.05755496,unrot,0,0.709099054337,[],[],images/2.png,4,95,AB,True,True,0,False,7,6
95,True,1.5,structure_learning,146.562702894,unrot,0,0.615875959396,[],[],images/1.png,3,96,AB,True,True,0,False,8,2
96,True,1.5,structure_learning,148.067750931,unrot,0,0.775539875031,[],[],images/6.png,1,97,AB,True,True,0,False,9,6
97,True,1.5,structure_learning,149.574486971,unrot,0,0.650424957275,[],[],images/8.png,2,98,AB,True,True,0,False,10,8
98,True,1.5,structure_learning,151.079500914,unrot,0,0.764119148254,[],[],images/5.png,0,99,AB,True,True,0,False,11,6
99,True,1.5,structure_learning,152.584388971,unrot,0,0.623459100723,[],[],images/8.png,2,100,AB,True,True,0,False,12,2
100,False,1.5,structure_learning,154.089416981,unrot,90,0.498839139938,[],[],images/6.png,1,101,AB,True,False,0,False,13,4
101,True,1.5,structure_learning,155.594383955,unrot,0,0.731183052063,[],[],images/8.png,2,102,AB,False,False,0,False,14,2
102,True,1.5,structure_learning,157.099259853,unrot,0,0.678030014038,[],[],images/2.png,4,103,AB,True,True,0,False,15,8
103,True,1.5,structure_learning,158.604397774,unrot,0,0.934826850891,[],[],images/11.png,5,104,AB,True,True,2,True,1,16
104,True,1.5,structure_learning,160.10928297,unrot,0,0.714632034302,[],[],images/2.png,4,105,AB,True,True,0,True,1,2
105,True,1.5,structure_learning,161.614422798,unrot,0,0.905560970306,[],[],images/6.png,1,106,AB,True,True,0,False,2,5
106,True,1.5,structure_learning,163.121198893,rot,90,0.925422906876,[],[],images/5.png,0,107,AB,True,False,0,False,3,8
107,True,1.5,structure_learning,164.626411915,unrot,0,0.894215106964,[],[],images/1.png,3,108,AB,True,False,0,False,4,12
108,True,1.5,structure_learning,166.131495953,unrot,0,0.674342155457,[],[],images/2.png,4,109,AB,True,True,0,False,5,4
109,False,1.5,structure_learning,167.636569977,rot,0,0.812975883484,[],[],images/1.png,3,110,AB,True,True,0,False,6,2
110,False,1.5,structure_learning,169.141831875,rot,0,0.878999948502,[],[],images/6.png,1,111,AB,False,True,0,False,7,5
111,True,1.5,structure_learning,170.647006989,unrot,0,0.752686023712,[],[],images/8.png,2,112,AB,False,True,0,False,8,10
112,True,1.5,structure_learning,172.151919842,unrot,0,0.643666028976,[],[],images/2.png,4,113,AB,True,True,0,False,9,4
113,True,1.5,structure_learning,173.656918764,unrot,0,0.51095700264,[],[],images/8.png,2,114,AB,True,True,0,False,10,2
114,False,1.5,structure_learning,175.161867857,unrot,90,0.521540880203,[],[],images/1.png,3,115,AB,True,False,0,False,11,5
115,False,1.5,structure_learning,176.666836977,rot,0,1.22404098511,[],[],images/6.png,1,116,AB,False,False,0,False,12,5
116,True,1.5,structure_learning,178.171896935,unrot,0,0.827841997147,[],[],images/8.png,2,117,AB,False,True,0,False,13,3
117,True,1.5,structure_learning,179.677082777,unrot,0,0.647346973419,[],[],images/2.png,4,118,AB,True,True,0,False,14,5
118,True,1.5,structure_learning,181.182307959,unrot,0,1.08679509163,[],[],images/6.png,1,119,AB,True,True,0,False,15,3
119,False,1.5,structure_learning,182.687304974,rot,0,1.15396094322,[],[],images/5.png,0,120,AB,True,True,0,False,16,13
120,True,1.5,structure_learning,184.192444801,rot,90,1.3068048954,[],[],images/6.png,1,121,AB,False,False,0,False,17,2
121,True,1.5,structure_learning,185.697718859,unrot,0,0.624248027802,[],[],images/2.png,4,122,AB,True,False,0,False,18,4
122,True,1.5,structure_learning,187.202692986,unrot,0,0.800992965698,[],[],images/6.png,1,123,AB,True,True,0,False,19,2
123,True,1.5,structure_learning,188.707785845,unrot,0,0.437673091888,[],[],images/2.png,4,124,AB,True,True,0,False,20,2
124,True,1.5,structure_learning,190.212920904,unrot,0,0.773720979691,[],[],images/11.png,5,125,AB,True,True,2,True,1,21
125,True,1.5,structure_learning,191.717791796,rot,90,0.837505102158,[],[],images/10.png,6,126,AB,True,False,1,True,1,39
126,True,1.5,structure_learning,193.226222992,unrot,0,0.718857049942,[],[],images/9.png,8,127,AB,True,False,1,False,2,42
127,False,1.5,structure_learning,194.731529951,unrot,90,0.911888122559,[],[],images/7.png,7,128,AB,True,False,1,False,3,45
128,True,1.5,structure_learning,196.236496925,rot,90,0.777604103088,[],[],images/10.png,6,129,AB,False,True,1,False,4,3
129,True,1.5,structure_learning,197.74476099,unrot,0,0.992227077484,[],[],images/11.png,5,130,AB,True,False,2,True,1,5
130,True,1.5,structure_learning,199.250010967,unrot,0,0.811351060867,[],[],images/2.png,4,131,AB,True,True,0,True,1,7
131,True,1.5,structure_learning,200.755311966,unrot,0,0.66259098053,[],[],images/8.png,2,132,AB,True,True,0,False,2,15
132,True,1.5,structure_learning,202.260503769,unrot,0,0.791965007782,[],[],images/1.png,3,133,AB,True,True,0,False,3,18
133,True,1.5,structure_learning,203.765568972,unrot,0,0.643475055695,[],[],images/8.png,2,134,AB,True,True,0,False,4,2
134,True,1.5,structure_learning,205.270426989,unrot,0,0.581990003586,[],[],images/1.png,3,135,AB,True,True,0,False,5,2
135,True,1.5,structure_learning,206.775474787,unrot,0,0.846268892288,[],[],images/6.png,1,136,AB,True,True,0,False,6,13
136,True,1.5,structure_learning,208.280575991,unrot,0,0.562355995178,[],[],images/8.png,2,137,AB,True,True,0,False,7,3
137,True,1.5,structure_learning,209.785601854,unrot,0,0.509402036667,[],[],images/2.png,4,138,AB,True,True,0,False,8,7
138,False,1.5,structure_learning,211.290700912,unrot,90,0.472043991089,[],[],images/1.png,3,139,AB,True,False,0,False,9,4
139,True,1.5,structure_learning,212.79566884,unrot,0,0.52973985672,[],[],images/8.png,2,140,AB,False,False,0,False,10,3
140,True,1.5,structure_learning,214.300756931,unrot,0,0.809151887894,[],[],images/1.png,3,141,AB,True,True,0,False,11,2
141,True,1.5,structure_learning,215.806678772,unrot,0,0.652607917786,[],[],images/8.png,2,142,AB,True,True,0,False,12,2
142,True,1.5,structure_learning,217.311514854,unrot,0,0.614979028702,[],[],images/2.png,4,143,AB,True,True,0,False,13,5
143,True,1.5,structure_learning,218.816507816,unrot,0,0.831591844559,[],[],images/11.png,5,144,AB,True,True,2,True,1,14
144,True,1.5,structure_learning,220.321600914,unrot,0,1.00570988655,[],[],images/10.png,6,145,AB,True,True,1,True,1,16
145,True,1.5,structure_learning,221.829717875,unrot,0,0.912529945374,[],[],images/3.png,9,146,AB,True,True,1,False,2,66
146,True,1.5,structure_learning,223.334825993,unrot,0,0.70824098587,[],[],images/9.png,8,147,AB,True,True,1,False,3,20
147,True,1.5,structure_learning,224.840009928,unrot,0,0.686594963074,[],[],images/4.png,10,148,AB,True,True,1,False,4,62
148,True,1.5,structure_learning,226.345078945,unrot,0,0.562027931213,[],[],images/9.png,8,149,AB,True,True,1,False,5,2
149,True,1.5,structure_learning,227.850009918,unrot,0,0.477164983749,[],[],images/4.png,10,150,AB,True,True,1,False,6,2
150,True,1.5,structure_learning,229.3550179,unrot,0,0.571831941605,[],[],images/10.png,6,151,AB,True,True,1,False,7,6
151,True,1.5,structure_learning,230.863047838,unrot,0,0.518672227859,[],[],images/3.png,9,152,AB,True,True,1,False,8,6
152,True,1.5,structure_learning,232.368276834,unrot,0,0.60011100769,[],[],images/7.png,7,153,AB,True,True,1,False,9,25
153,True,1.5,structure_learning,233.873324871,unrot,0,0.55938911438,[],[],images/10.png,6,154,AB,True,True,1,False,10,3
154,True,1.5,structure_learning,235.381437778,unrot,0,0.466617822647,[],[],images/9.png,8,155,AB,True,True,1,False,11,6
155,True,1.5,structure_learning,236.886315823,unrot,0,0.492391109467,[],[],images/3.png,9,156,AB,True,True,1,False,12,4
156,True,1.5,structure_learning,238.391658783,unrot,0,0.398723840714,[],[],images/7.png,7,157,AB,True,True,1,False,13,4
157,True,1.5,structure_learning,239.896846771,unrot,0,0.512104034424,[],[],images/3.png,9,158,AB,True,True,1,False,14,2
158,True,1.5,structure_learning,241.401917934,unrot,0,0.490478992462,[],[],images/7.png,7,159,AB,True,True,1,False,15,2
159,True,1.5,structure_learning,242.907075882,unrot,0,0.377831935883,[],[],images/10.png,6,160,AB,True,True,1,False,16,6
160,True,1.5,structure_learning,244.415473938,unrot,0,0.554425001144,[],[],images/9.png,8,161,AB,True,True,1,False,17,6
161,True,1.5,structure_learning,245.920444965,unrot,0,0.555928945541,[],[],images/3.png,9,162,AB,True,True,1,False,18,4
162,True,1.5,structure_learning,247.425997972,rot,90,1.01889204979,[],[],images/9.png,8,163,AB,True,False,1,False,19,2
163,True,1.5,structure_learning,248.932181835,unrot,0,0.602008104324,[],[],images/10.png,6,164,AB,True,False,1,False,20,4
164,True,1.5,structure_learning,250.44195199,unrot,0,0.643680095673,[],[],images/7.png,7,165,AB,True,True,1,False,21,6
165,True,1.5,structure_learning,251.947147846,rot,90,0.901478052139,[],[],images/9.png,8,166,AB,True,False,1,False,22,3
166,True,1.5,structure_learning,253.452439785,unrot,0,0.616086006165,[],[],images/4.png,10,167,AB,True,False,1,False,23,17
167,True,1.5,structure_learning,254.957729816,unrot,0,1.01562285423,[],[],images/9.png,8,168,AB,True,True,1,False,24,2
168,False,1.5,structure_learning,256.46269083,unrot,90,0.739789009094,[],[],images/3.png,9,169,AB,True,False,1,False,25,7
169,True,1.5,structure_learning,257.96784091,unrot,0,0.861109972,[],[],images/4.png,10,170,AB,False,False,1,False,26,3
170,True,1.5,structure_learning,259.47294879,unrot,0,0.871098041534,[],[],images/5.png,0,171,AB,True,True,0,True,1,51
171,True,1.5,structure_learning,260.977936983,unrot,0,0.627362966537,[],[],images/1.png,3,172,AB,True,True,0,False,2,31
172,True,1.5,structure_learning,262.483036995,unrot,0,0.669111967087,[],[],images/8.png,2,173,AB,True,True,0,False,3,31
173,True,1.5,structure_learning,263.98817277,unrot,0,0.671095132828,[],[],images/6.png,1,174,AB,True,True,0,False,4,38
174,True,1.5,structure_learning,265.493330956,unrot,0,0.451111078262,[],[],images/8.png,2,175,AB,True,True,0,False,5,2
175,True,1.5,structure_learning,266.99819994,unrot,0,0.636013031006,[],[],images/2.png,4,176,AB,True,True,0,False,6,33
176,True,1.5,structure_learning,268.50334692,unrot,0,0.574831008911,[],[],images/8.png,2,177,AB,True,True,0,False,7,2
177,True,1.5,structure_learning,270.008468866,unrot,0,0.640022993088,[],[],images/2.png,4,178,AB,True,True,0,False,8,2
178,True,1.5,structure_learning,271.513930798,unrot,0,0.673937082291,[],[],images/6.png,1,179,AB,True,True,0,False,9,5
179,True,1.5,structure_learning,273.018922806,unrot,0,0.723922967911,[],[],images/5.png,0,180,AB,True,True,0,False,10,9
180,True,1.5,structure_learning,274.523923874,unrot,0,0.829638957977,[],[],images/1.png,3,181,AB,True,True,0,False,11,9
181,True,1.5,structure_learning,276.028872967,rot,90,1.17486810684,[],[],images/6.png,1,182,AB,True,False,0,False,12,3
182,True,1.5,structure_learning,277.533863783,unrot,0,0.635751962662,[],[],images/8.png,2,183,AB,True,False,0,False,13,6
183,False,1.5,structure_learning,279.038784981,rot,0,0.830301046371,[],[],images/6.png,1,184,AB,True,True,0,False,14,2
184,True,1.5,structure_learning,280.543977976,unrot,0,0.513697862625,[],[],images/8.png,2,185,AB,False,True,0,False,15,2
185,True,1.5,structure_learning,282.048816919,unrot,0,0.643344163895,[],[],images/5.png,0,186,AB,True,True,0,False,16,6
186,True,1.5,structure_learning,283.553870916,unrot,0,0.549695968628,[],[],images/4.png,10,187,AB,True,True,1,True,1,17
187,True,1.5,structure_learning,285.059336901,unrot,0,0.591701984406,[],[],images/3.png,9,188,AB,True,True,1,False,2,19
188,True,1.5,structure_learning,286.564414978,unrot,0,0.553927183151,[],[],images/4.png,10,189,AB,True,True,1,False,3,2
189,True,1.5,structure_learning,288.069595814,unrot,0,0.540760993958,[],[],images/9.png,8,190,AB,True,True,1,False,4,22
190,True,1.5,structure_learning,289.574510813,unrot,0,0.587602853775,[],[],images/10.png,6,191,AB,True,True,1,False,5,27
191,True,1.5,structure_learning,291.082524776,unrot,0,0.470642805099,[],[],images/7.png,7,192,AB,True,True,1,False,6,27
192,True,1.5,structure_learning,292.587741852,unrot,0,0.588739871979,[],[],images/10.png,6,193,AB,True,True,1,False,7,2
193,True,1.5,structure_learning,294.095803976,unrot,0,0.456316947937,[],[],images/7.png,7,194,AB,True,True,1,False,8,2
194,True,1.5,structure_learning,295.600774765,unrot,0,0.339607000351,[],[],images/3.png,9,195,AB,True,True,1,False,9,7
195,True,1.5,structure_learning,297.105914831,unrot,0,0.299077033997,[],[],images/10.png,6,196,AB,True,True,1,False,10,3
196,True,1.5,structure_learning,298.614056826,unrot,0,0.309783935547,[],[],images/9.png,8,197,AB,True,True,1,False,11,7
197,True,1.5,structure_learning,300.119092941,unrot,0,0.351774930954,[],[],images/7.png,7,198,AB,True,True,1,False,12,4
198,False,1.5,structure_learning,301.624429941,unrot,90,0.374648094177,[],[],images/10.png,6,199,AB,True,False,1,False,13,3
199,True,1.5,structure_learning,303.13290596,rot,90,0.871452093124,[],[],images/7.png,7,200,AB,False,True,1,False,14,2
200,True,1.5,structure_learning,304.638002872,unrot,0,0.562617063522,[],[],images/9.png,8,201,AB,True,False,1,False,15,4
201,False,1.5,structure_learning,306.142935991,rot,0,0.916141033173,[],[],images/7.png,7,202,AB,True,True,1,False,16,2
202,True,1.5,structure_learning,307.647893906,unrot,0,0.64691901207,[],[],images/9.png,8,203,AB,False,True,1,False,17,2
203,True,1.5,structure_learning,309.152936935,unrot,0,0.664995193481,[],[],images/4.png,10,204,AB,True,True,1,False,18,15
204,True,1.5,structure_learning,310.65799284,unrot,0,0.540271997452,[],[],images/9.png,8,205,AB,True,True,1,False,19,2
205,True,1.5,structure_learning,312.162844896,unrot,0,0.610840082169,[],[],images/10.png,6,206,AB,True,True,1,False,20,7
206,True,1.5,structure_learning,313.671101809,unrot,0,0.620605945587,[],[],images/7.png,7,207,AB,True,True,1,False,21,5
207,True,1.5,structure_learning,315.176536798,unrot,0,0.599164009094,[],[],images/9.png,8,208,AB,True,True,1,False,22,3
208,True,1.5,structure_learning,316.681682825,unrot,0,0.609303951263,[],[],images/3.png,9,209,AB,True,True,1,False,23,14
209,True,1.5,structure_learning,318.186833858,unrot,0,0.460729122162,[],[],images/7.png,7,210,AB,True,True,1,False,24,3
210,True,1.5,structure_learning,319.692061901,unrot,0,0.605774879456,[],[],images/4.png,10,211,AB,True,True,1,False,25,7
211,True,1.5,structure_learning,321.197118998,unrot,0,0.735363006592,[],[],images/3.png,9,212,AB,True,True,1,False,26,3
212,True,1.5,structure_learning,322.702162981,unrot,0,0.570750951767,[],[],images/9.png,8,213,AB,True,True,1,False,27,5
213,True,1.5,structure_learning,324.207055807,unrot,0,0.437891960144,[],[],images/3.png,9,214,AB,True,True,1,False,28,2
214,True,1.5,structure_learning,325.712144852,unrot,0,0.579852819443,[],[],images/10.png,6,215,AB,True,True,1,False,29,9
215,True,1.5,structure_learning,327.22021389,unrot,0,0.479053974152,[],[],images/3.png,9,216,AB,True,True,1,False,30,2
216,True,1.5,structure_learning,328.725581884,unrot,0,0.536760091782,[],[],images/9.png,8,217,AB,True,True,1,False,31,4
217,True,1.5,structure_learning,330.23079586,unrot,0,0.459664106369,[],[],images/3.png,9,218,AB,True,True,1,False,32,2
218,True,1.5,structure_learning,331.735917807,unrot,0,0.318395853043,[],[],images/7.png,7,219,AB,True,True,1,False,33,9
219,True,1.5,structure_learning,333.241046906,rot,90,1.0136859417,[],[],images/9.png,8,220,AB,True,False,1,False,34,3
220,True,1.5,structure_learning,334.746033907,unrot,0,0.601194858551,[],[],images/4.png,10,221,AB,True,False,1,False,35,10
221,True,1.5,structure_learning,336.251004934,unrot,0,0.444576978683,[],[],images/9.png,8,222,AB,True,True,1,False,36,2
222,True,1.5,structure_learning,337.75602293,unrot,0,0.602626085281,[],[],images/10.png,6,223,AB,True,True,1,False,37,8
223,True,1.5,structure_learning,339.264244795,unrot,0,0.525757789612,[],[],images/9.png,8,224,AB,True,True,1,False,38,2
224,True,1.5,structure_learning,340.769212961,unrot,0,0.353064060211,[],[],images/3.png,9,225,AB,True,True,1,False,39,7
225,True,1.5,structure_learning,342.274496794,unrot,0,0.339751005173,[],[],images/9.png,8,226,AB,True,True,1,False,40,2
226,True,1.5,structure_learning,343.779884815,rot,90,0.662739992142,[],[],images/10.png,6,227,AB,True,False,1,False,41,4
227,True,1.5,structure_learning,345.291327953,unrot,0,0.489273071289,[],[],images/9.png,8,228,AB,True,False,1,False,42,2
228,True,1.5,structure_learning,346.796355963,unrot,0,0.539665937424,[],[],images/4.png,10,229,AB,True,True,1,False,43,8
229,True,1.5,structure_learning,348.301425934,unrot,0,0.52646112442,[],[],images/9.png,8,230,AB,True,True,1,False,44,2
230,False,1.5,structure_learning,349.806522846,unrot,90,0.648247003555,[],[],images/3.png,9,231,AB,True,False,1,False,45,6
231,True,1.5,structure_learning,351.311624765,unrot,0,0.738582134247,[],[],images/7.png,7,232,AB,False,False,1,False,46,13
232,True,1.5,structure_learning,352.816602945,unrot,0,0.762199878693,[],[],images/10.png,6,233,AB,True,True,1,False,47,6
233,True,1.5,structure_learning,354.324688911,unrot,0,0.614192008972,[],[],images/9.png,8,234,AB,True,True,1,False,48,4
234,True,1.5,structure_learning,355.829663992,unrot,0,0.590184926987,[],[],images/10.png,6,235,AB,True,True,1,False,49,2
235,True,1.5,structure_learning,357.33769393,unrot,0,0.449742078781,[],[],images/7.png,7,236,AB,True,True,1,False,50,4
236,True,1.5,structure_learning,358.84286499,unrot,0,0.364666938782,[],[],images/3.png,9,237,AB,True,True,1,False,51,6
237,True,1.5,structure_learning,360.348333836,unrot,0,0.319664955139,[],[],images/7.png,7,238,AB,True,True,1,False,52,2
238,True,1.5,structure_learning,361.853323936,unrot,0,0.346098899841,[],[],images/9.png,8,239,AB,True,True,1,False,53,5
239,True,1.5,structure_learning,363.358503819,unrot,0,0.559015989304,[],[],images/10.png,6,240,AB,True,True,1,False,54,5
240,True,1.5,structure_learning,364.867558956,unrot,0,1.08542299271,[],[],images/11.png,5,241,AB,True,True,2,True,1,97
241,True,1.5,structure_learning,366.372698784,unrot,0,0.639992952347,[],[],images/10.png,6,242,AB,True,True,1,True,1,2
242,True,1.5,structure_learning,367.880693913,unrot,0,0.666393041611,[],[],images/11.png,5,243,AB,True,True,2,True,1,2
243,True,1.5,structure_learning,369.385676861,unrot,0,0.796568870544,[],[],images/2.png,4,244,AB,True,True,0,True,1,66
244,True,1.5,structure_learning,370.890690804,unrot,0,0.65656709671,[],[],images/8.png,2,245,AB,True,True,0,False,2,60
245,True,1.5,structure_learning,372.395688772,unrot,0,0.564019918442,[],[],images/2.png,4,246,AB,True,True,0,False,3,2
246,True,1.5,structure_learning,373.900831938,unrot,0,0.669757843018,[],[],images/6.png,1,247,AB,True,True,0,False,4,63
247,True,1.5,structure_learning,375.406107903,unrot,0,0.704209804535,[],[],images/5.png,0,248,AB,True,True,0,False,5,62
248,True,1.5,structure_learning,376.911104918,unrot,0,0.603895187378,[],[],images/8.png,2,249,AB,True,True,0,False,6,4
249,True,1.5,structure_learning,378.416170835,unrot,0,0.543256044388,[],[],images/5.png,0,250,AB,True,True,0,False,7,2
250,True,1.5,structure_learning,379.921028852,unrot,0,0.79265499115,[],[],images/1.png,3,251,AB,True,True,0,False,8,70
251,False,1.5,structure_learning,381.426031828,unrot,90,0.700343847275,[],[],images/8.png,2,252,AB,True,False,0,False,9,3
252,False,1.5,structure_learning,382.930962801,unrot,90,1.13208293915,[],[],images/6.png,1,253,AB,False,True,0,False,10,6
253,True,1.5,structure_learning,384.436099768,unrot,0,0.665814161301,[],[],images/2.png,4,254,AB,False,False,0,False,11,8
254,False,1.5,structure_learning,385.941121817,unrot,90,0.668453931808,[],[],images/11.png,5,255,AB,True,False,2,True,1,12
255,True,1.5,structure_learning,387.446123838,unrot,0,0.747251033783,[],[],images/10.png,6,256,AB,False,False,1,True,1,14
256,False,1.5,structure_learning,388.954149961,unrot,90,0.654036998749,[],[],images/3.png,9,257,AB,True,False,1,False,2,20
257,True,1.5,structure_learning,390.459652901,unrot,0,0.807453870773,[],[],images/7.png,7,258,AB,False,False,1,False,3,20
258,True,1.5,structure_learning,391.964703798,unrot,0,0.794023990631,[],[],images/3.png,9,259,AB,True,True,1,False,4,2
259,True,1.5,structure_learning,393.469791889,unrot,0,0.677175998688,[],[],images/4.png,10,260,AB,True,True,1,False,5,31
260,False,1.5,structure_learning,394.97487998,rot,0,0.871700048447,[],[],images/3.png,9,261,AB,True,True,1,False,6,2
261,True,1.5,structure_learning,396.480166912,unrot,0,0.614935874939,[],[],images/10.png,6,262,AB,False,True,1,False,7,6
262,True,1.5,structure_learning,397.988492966,unrot,0,0.537843942642,[],[],images/7.png,7,263,AB,True,True,1,False,8,5
263,True,1.5,structure_learning,399.493558884,unrot,0,0.714963197708,[],[],images/3.png,9,264,AB,True,True,1,False,9,3
264,True,1.5,structure_learning,400.998846769,unrot,0,0.685863018036,[],[],images/4.png,10,265,AB,True,True,1,False,10,5
265,True,1.5,structure_learning,402.503903866,unrot,0,0.582373142242,[],[],images/10.png,6,266,AB,True,True,1,False,11,4
266,True,1.5,structure_learning,404.011892796,rot,90,0.967725038528,[],[],images/9.png,8,267,AB,True,False,1,False,12,28
267,True,1.5,structure_learning,405.517181873,unrot,0,0.571478128433,[],[],images/3.png,9,268,AB,True,False,1,False,13,4
268,True,1.5,structure_learning,407.022249937,unrot,0,0.653805017471,[],[],images/7.png,7,269,AB,True,True,1,False,14,6
269,True,1.5,structure_learning,408.527338982,unrot,0,0.553291082382,[],[],images/4.png,10,270,AB,True,True,1,False,15,5
270,False,1.5,structure_learning,410.032480955,unrot,90,0.715001106262,[],[],images/3.png,9,271,AB,True,False,1,False,16,3
271,True,1.5,structure_learning,411.537562847,unrot,0,0.916412115097,[],[],images/9.png,8,272,AB,False,False,1,False,17,5
272,True,1.5,structure_learning,413.042536974,unrot,0,1.0064368248,[],[],images/3.png,9,273,AB,True,True,1,False,18,2
273,True,1.5,structure_learning,414.547762871,unrot,0,0.659752130508,[],[],images/9.png,8,274,AB,True,True,1,False,19,2
274,True,1.5,structure_learning,416.052658796,unrot,0,0.580348014832,[],[],images/10.png,6,275,AB,True,True,1,False,20,9
275,False,1.5,structure_learning,417.560741901,unrot,90,0.662294149399,[],[],images/3.png,9,276,AB,True,False,1,False,21,3
276,True,1.5,structure_learning,419.06622982,unrot,0,0.633090019226,[],[],images/4.png,10,277,AB,False,False,1,False,22,7
277,True,1.5,structure_learning,420.571466923,unrot,0,0.691427946091,[],[],images/5.png,0,278,AB,True,True,0,True,1,28
278,True,1.5,structure_learning,422.076380968,unrot,0,0.534306049347,[],[],images/4.png,10,279,AB,True,True,1,True,1,2
279,True,1.5,structure_learning,423.582312822,unrot,0,0.663783073425,[],[],images/3.png,9,280,AB,True,True,1,False,2,4
280,True,1.5,structure_learning,425.087580919,unrot,0,0.33244395256,[],[],images/4.png,10,281,AB,True,True,1,False,3,2
281,True,1.5,structure_learning,426.59281683,rot,90,0.789748907089,[],[],images/9.png,8,282,AB,True,False,1,False,4,8
282,True,1.5,structure_learning,428.098016977,unrot,0,0.567090988159,[],[],images/3.png,9,283,AB,True,False,1,False,5,3
283,True,1.5,structure_learning,429.604603767,unrot,0,0.570045948029,[],[],images/4.png,10,284,AB,True,True,1,False,6,3
284,True,1.5,structure_learning,431.109471798,unrot,0,0.660303115845,[],[],images/3.png,9,285,AB,True,True,1,False,7,2
285,True,1.5,structure_learning,432.614753962,rot,90,0.894952058792,[],[],images/7.png,7,286,AB,True,False,1,False,8,17
286,True,1.5,structure_learning,434.119960785,rot,90,0.74314904213,[],[],images/10.png,6,287,AB,True,True,1,False,9,12
287,True,1.5,structure_learning,435.628590822,unrot,0,0.624856948853,[],[],images/3.png,9,288,AB,True,False,1,False,10,3
288,True,1.5,structure_learning,437.133856773,unrot,0,0.624703168869,[],[],images/10.png,6,289,AB,True,True,1,False,11,2
289,True,1.5,structure_learning,438.642111778,unrot,0,0.715061187744,[],[],images/11.png,5,290,AB,True,True,2,True,1,35
290,False,1.5,structure_learning,440.14719677,unrot,90,0.60595703125,[],[],images/2.png,4,291,AB,True,False,0,True,1,37
291,True,1.5,structure_learning,441.65253377,unrot,0,0.950215101242,[],[],images/6.png,1,292,AB,False,False,0,False,2,39
292,True,1.5,structure_learning,443.157774925,unrot,0,0.659042835236,[],[],images/5.png,0,293,AB,True,True,0,False,3,15
293,True,1.5,structure_learning,444.662810802,unrot,0,0.677450895309,[],[],images/4.png,10,294,AB,True,True,1,True,1,10
294,True,1.5,structure_learning,446.167922974,unrot,0,0.59307217598,[],[],images/5.png,0,295,AB,True,True,0,True,1,2
295,True,1.5,structure_learning,447.672899961,unrot,0,0.770658969879,[],[],images/6.png,1,296,AB,True,True,0,False,2,4
296,False,1.5,structure_learning,449.177990913,unrot,90,0.669929027557,[],[],images/2.png,4,297,AB,True,False,0,False,3,6
297,True,1.5,structure_learning,450.683699846,unrot,0,0.648753881454,[],[],images/11.png,5,298,AB,False,False,2,True,1,8
298,False,1.5,structure_learning,452.189083815,unrot,90,0.738597154617,[],[],images/2.png,4,299,AB,True,False,0,True,1,2
299,True,1.5,structure_learning,453.694510937,rot,90,1.08386206627,[],[],images/1.png,3,300,AB,False,True,0,False,2,49
300,True,1.5,structure_learning,455.199884892,unrot,0,1.09330296516,[],[],images/6.png,1,301,AB,True,False,0,False,3,5
301,True,1.5,structure_learning,456.705114841,unrot,0,0.738311052322,[],[],images/5.png,0,302,AB,True,True,0,False,4,7
302,False,1.5,structure_learning,458.21014595,rot,0,0.780891180038,[],[],images/1.png,3,303,AB,True,True,0,False,5,3
303,True,1.5,structure_learning,459.716622829,unrot,0,0.965013980865,[],[],images/5.png,0,304,AB,False,True,0,False,6,2
304,True,1.5,structure_learning,461.221565962,rot,90,1.10438704491,[],[],images/1.png,3,305,AB,True,False,0,False,7,2
305,True,1.5,structure_learning,462.726575851,unrot,0,0.572934150696,[],[],images/5.png,0,306,AB,True,False,0,False,8,2
306,True,1.5,structure_learning,464.231644869,unrot,0,0.782011032104,[],[],images/6.png,1,307,AB,True,True,0,False,9,6
307,True,1.5,structure_learning,465.736865997,unrot,0,0.6497631073,[],[],images/5.png,0,308,AB,True,True,0,False,10,2
308,True,1.5,structure_learning,467.241679907,unrot,0,0.676243066788,[],[],images/6.png,1,309,AB,True,True,0,False,11,2
309,False,1.5,structure_learning,468.746915817,rot,0,1.13322997093,[],[],images/2.png,4,310,AB,True,True,0,False,12,11
310,True,1.5,structure_learning,470.252136946,rot,90,1.15958690643,[],[],images/8.png,2,311,AB,False,False,0,False,13,59
311,True,1.5,structure_learning,471.757219791,rot,90,0.971563816071,[],[],images/5.png,0,312,AB,True,True,0,False,14,4
312,False,1.5,structure_learning,473.262269974,rot,0,1.27635407448,[],[],images/1.png,3,313,AB,True,False,0,False,15,8
313,True,1.5,structure_learning,474.767484903,unrot,0,0.721217155457,[],[],images/6.png,1,314,AB,False,True,0,False,16,5
314,True,1.5,structure_learning,476.272666931,unrot,0,0.913959026337,[],[],images/2.png,4,315,AB,True,True,0,False,17,5
315,True,1.5,structure_learning,477.778667927,unrot,0,0.734141111374,[],[],images/6.png,1,316,AB,True,True,0,False,18,2
316,True,1.5,structure_learning,479.283759832,unrot,0,1.29974508286,[],[],images/8.png,2,317,AB,True,True,0,False,19,6
317,True,1.5,structure_learning,480.790313959,unrot,0,0.737311124802,[],[],images/1.png,3,318,AB,True,True,0,False,20,5
318,True,1.5,structure_learning,482.296760798,unrot,0,0.65269780159,[],[],images/2.png,4,319,AB,True,True,0,False,21,4
319,True,1.5,structure_learning,483.801960945,unrot,0,0.631937026978,[],[],images/11.png,5,320,AB,True,True,2,True,1,22
320,True,1.5,structure_learning,485.306802988,rot,90,0.863692998886,[],[],images/10.png,6,321,AB,True,False,1,True,1,32
321,True,1.5,structure_learning,486.814908981,unrot,0,0.753808021545,[],[],images/11.png,5,322,AB,True,False,2,True,1,2
322,True,1.5,structure_learning,488.319914818,unrot,0,0.674185037613,[],[],images/10.png,6,323,AB,True,True,1,True,1,2
323,False,1.5,structure_learning,489.827796936,unrot,90,0.668823003769,[],[],images/9.png,8,324,AB,True,False,1,False,2,42
324,True,1.5,structure_learning,491.332843781,unrot,0,0.925539970398,[],[],images/7.png,7,325,AB,False,False,1,False,3,39
325,True,1.5,structure_learning,492.837877989,unrot,0,0.686728954315,[],[],images/10.png,6,326,AB,True,True,1,False,4,3
326,True,1.5,structure_learning,494.346056938,unrot,0,0.561483860016,[],[],images/7.png,7,327,AB,True,True,1,False,5,2
327,True,1.5,structure_learning,495.851642847,unrot,0,0.569478034973,[],[],images/10.png,6,328,AB,True,True,1,False,6,2
328,True,1.5,structure_learning,497.359616995,unrot,0,0.675763845444,[],[],images/11.png,5,329,AB,True,True,2,True,1,7
329,True,1.5,structure_learning,498.864612818,unrot,0,0.460805892944,[],[],images/10.png,6,330,AB,True,True,1,True,1,2
330,True,1.5,structure_learning,500.372836828,unrot,0,0.654636859894,[],[],images/9.png,8,331,AB,True,True,1,False,2,7
331,True,1.5,structure_learning,501.877705812,unrot,0,0.823981046677,[],[],images/3.png,9,332,AB,True,True,1,False,3,44
332,True,1.5,structure_learning,503.382859945,unrot,0,0.667568922043,[],[],images/7.png,7,333,AB,True,True,1,False,4,6
333,True,1.5,structure_learning,504.888059855,rot,90,0.799253225327,[],[],images/9.png,8,334,AB,True,False,1,False,5,3
334,True,1.5,structure_learning,8.20159912109e-05,rot,90,0.873120069504,[],[],images/10.png,6,335,AB,True,True,1,False,6,5
335,True,1.5,structure_learning,1.51059103012,unrot,0,0.802628993988,[],[],images/3.png,9,336,AB,True,False,1,False,7,4
336,True,1.5,structure_learning,3.0159471035,unrot,0,0.638674974442,[],[],images/4.png,10,337,AB,True,True,1,False,8,43
337,True,1.5,structure_learning,4.52099919319,unrot,0,0.56690120697,[],[],images/10.png,6,338,AB,True,True,1,False,9,3
338,True,1.5,structure_learning,6.02912211418,unrot,0,0.791895866394,[],[],images/7.png,7,339,AB,True,True,1,False,10,6
339,True,1.5,structure_learning,7.53410005569,rot,90,0.553987979889,[],[],images/10.png,6,340,AB,True,False,1,False,11,2
340,True,1.5,structure_learning,9.04324412346,unrot,0,0.650696992874,[],[],images/3.png,9,341,AB,True,False,1,False,12,5
341,True,1.5,structure_learning,10.5486090183,unrot,0,0.51567196846,[],[],images/10.png,6,342,AB,True,True,1,False,13,2
342,True,1.5,structure_learning,12.0565311909,rot,90,0.623264074326,[],[],images/9.png,8,343,AB,True,False,1,False,14,9
343,True,1.5,structure_learning,13.5615911484,rot,90,0.590994119644,[],[],images/10.png,6,344,AB,True,True,1,False,15,2
344,True,1.5,structure_learning,15.0698540211,unrot,0,0.520907878876,[],[],images/3.png,9,345,AB,True,False,1,False,16,4
345,True,1.5,structure_learning,16.5749280453,unrot,0,0.571048974991,[],[],images/7.png,7,346,AB,True,True,1,False,17,7
346,True,1.5,structure_learning,18.0802910328,unrot,0,0.532790899277,[],[],images/3.png,9,347,AB,True,True,1,False,18,2
347,True,1.5,structure_learning,19.5863540173,rot,90,0.807582855225,[],[],images/4.png,10,348,AB,True,False,1,False,19,11
348,True,1.5,structure_learning,21.0915260315,unrot,0,0.535717964172,[],[],images/10.png,6,349,AB,True,False,1,False,20,5
349,True,1.5,structure_learning,22.5997080803,unrot,0,0.586704969406,[],[],images/7.png,7,350,AB,True,True,1,False,21,4
350,False,1.5,structure_learning,24.1048891544,unrot,90,0.667171001434,[],[],images/4.png,10,351,AB,True,False,1,False,22,3
351,True,1.5,structure_learning,25.6115729809,unrot,0,0.558517932892,[],[],images/3.png,9,352,AB,False,False,1,False,23,5
352,True,1.5,structure_learning,27.1170680523,unrot,0,0.617085933685,[],[],images/4.png,10,353,AB,True,True,1,False,24,2
353,True,1.5,structure_learning,28.6221711636,unrot,0,0.529347896576,[],[],images/10.png,6,354,AB,True,True,1,False,25,5
354,True,1.5,structure_learning,30.1306121349,unrot,0,0.507605075836,[],[],images/3.png,9,355,AB,True,True,1,False,26,3
355,True,1.5,structure_learning,31.6360831261,unrot,0,0.588648080826,[],[],images/4.png,10,356,AB,True,True,1,False,27,3
356,False,1.5,structure_learning,33.1429100037,unrot,90,0.542043924332,[],[],images/3.png,9,357,AB,True,False,1,False,28,2
357,True,1.5,structure_learning,34.6496300697,unrot,0,0.600530147552,[],[],images/7.png,7,358,AB,False,False,1,False,29,8
358,True,1.5,structure_learning,36.1547431946,unrot,0,0.841688156128,[],[],images/9.png,8,359,AB,True,True,1,False,30,16
359,True,1.5,structure_learning,37.659883976,unrot,0,0.606332063675,[],[],images/7.png,7,360,AB,True,True,1,False,31,2
360,False,1.5,structure_learning,39.1650559902,unrot,90,0.631006002426,[],[],images/3.png,9,361,AB,True,False,1,False,32,4
361,True,1.5,structure_learning,40.6721401215,rot,90,0.775840044022,[],[],images/10.png,6,362,AB,False,True,1,False,33,8
362,True,1.5,structure_learning,42.1803171635,unrot,0,0.721575021744,[],[],images/11.png,5,363,AB,True,False,2,True,1,34
363,True,1.5,structure_learning,43.6852791309,unrot,0,0.748439073563,[],[],images/2.png,4,364,AB,True,True,0,True,1,45
364,True,1.5,structure_learning,45.1904549599,unrot,0,0.671961069107,[],[],images/6.png,1,365,AB,True,True,0,False,2,49
365,True,1.5,structure_learning,46.6955161095,unrot,0,0.619135856628,[],[],images/2.png,4,366,AB,True,True,0,False,3,2
366,True,1.5,structure_learning,48.2005610466,unrot,0,0.804847002029,[],[],images/1.png,3,367,AB,True,True,0,False,4,49
367,True,1.5,structure_learning,49.7056450844,unrot,0,0.600800037384,[],[],images/6.png,1,368,AB,True,True,0,False,5,3
368,True,1.5,structure_learning,51.210958004,unrot,0,0.555718898773,[],[],images/2.png,4,369,AB,True,True,0,False,6,3
369,True,1.5,structure_learning,52.7160730362,unrot,0,0.534424066544,[],[],images/6.png,1,370,AB,True,True,0,False,7,2
370,True,1.5,structure_learning,54.2214140892,unrot,0,0.694740056992,[],[],images/5.png,0,371,AB,True,True,0,False,8,59
371,True,1.5,structure_learning,55.727971077,unrot,0,0.633636951447,[],[],images/1.png,3,372,AB,True,True,0,False,9,5
372,True,1.5,structure_learning,57.2332861423,unrot,0,0.509469032288,[],[],images/2.png,4,373,AB,True,True,0,False,10,4
373,True,1.5,structure_learning,58.7385940552,rot,90,0.783314228058,[],[],images/6.png,1,374,AB,True,False,0,False,11,4
374,True,1.5,structure_learning,60.2438361645,unrot,0,0.538318157196,[],[],images/5.png,0,375,AB,True,False,0,False,12,4
375,True,1.5,structure_learning,61.7487840652,rot,90,1.40132498741,[],[],images/8.png,2,376,AB,True,False,0,False,13,59
376,True,1.5,structure_learning,63.2537059784,unrot,0,0.671648025513,[],[],images/2.png,4,377,AB,True,False,0,False,14,4
377,True,1.5,structure_learning,64.7587940693,rot,90,0.827251911163,[],[],images/11.png,5,378,AB,True,False,2,True,1,15
378,True,1.5,structure_learning,66.2636971474,unrot,0,0.6380610466,[],[],images/2.png,4,379,AB,True,False,0,True,1,2
379,True,1.5,structure_learning,67.7689659595,rot,90,0.912306070328,[],[],images/11.png,5,380,AB,True,False,2,True,1,2
380,True,1.5,structure_learning,69.2743771076,unrot,0,0.616330862045,[],[],images/10.png,6,381,AB,True,False,1,True,1,19
381,True,1.5,structure_learning,70.7829990387,unrot,0,0.794065952301,[],[],images/9.png,8,382,AB,True,True,1,False,2,23
382,True,1.5,structure_learning,72.2884690762,unrot,0,0.85249209404,[],[],images/3.png,9,383,AB,True,True,1,False,3,22
383,True,1.5,structure_learning,73.7939090729,rot,90,0.752675056458,[],[],images/9.png,8,384,AB,True,False,1,False,4,2
384,True,1.5,structure_learning,75.3000621796,unrot,0,0.595237016678,[],[],images/3.png,9,385,AB,True,False,1,False,5,2
385,True,1.5,structure_learning,76.8052511215,unrot,0,0.645919799805,[],[],images/7.png,7,386,AB,True,True,1,False,6,26
386,True,1.5,structure_learning,78.3102309704,unrot,0,0.52191400528,[],[],images/3.png,9,387,AB,True,True,1,False,7,2
387,True,1.5,structure_learning,79.8154420853,unrot,0,0.596899032593,[],[],images/9.png,8,388,AB,True,True,1,False,8,4
388,True,1.5,structure_learning,81.3204011917,unrot,0,0.487252950668,[],[],images/3.png,9,389,AB,True,True,1,False,9,2
389,True,1.5,structure_learning,82.8269660473,unrot,0,0.490369081497,[],[],images/7.png,7,390,AB,True,True,1,False,10,4
390,True,1.5,structure_learning,84.3320550919,unrot,0,0.585490942001,[],[],images/10.png,6,391,AB,True,True,1,False,11,10
391,True,1.5,structure_learning,85.840473175,unrot,0,0.525546073914,[],[],images/3.png,9,392,AB,True,True,1,False,12,3
392,True,1.5,structure_learning,87.345788002,unrot,0,0.513087034225,[],[],images/9.png,8,393,AB,True,True,1,False,13,5
393,True,1.5,structure_learning,88.8508219719,unrot,0,0.499315023422,[],[],images/7.png,7,394,AB,True,True,1,False,14,4
394,False,1.5,structure_learning,90.3573260307,unrot,90,0.54217004776,[],[],images/3.png,9,395,AB,True,False,1,False,15,3
395,True,1.5,structure_learning,91.86247015,rot,90,0.817256212234,[],[],images/7.png,7,396,AB,False,True,1,False,16,2
396,True,1.5,structure_learning,93.3674139977,unrot,0,0.588557958603,[],[],images/9.png,8,397,AB,True,False,1,False,17,4
397,True,1.5,structure_learning,94.8723061085,unrot,0,0.588942050934,[],[],images/10.png,6,398,AB,True,True,1,False,18,7
398,True,1.5,structure_learning,96.3803701401,rot,90,0.83233499527,[],[],images/3.png,9,399,AB,True,False,1,False,19,4
399,True,1.5,structure_learning,97.8856301308,unrot,0,0.579355955124,[],[],images/7.png,7,400,AB,True,False,1,False,20,4
400,True,1.5,structure_learning,99.3909749985,rot,90,0.846853017807,[],[],images/4.png,10,401,AB,True,False,1,False,21,45
401,False,1.5,structure_learning,100.896219969,unrot,90,0.616835832596,[],[],images/3.png,9,402,AB,True,True,1,False,22,3
402,True,1.5,structure_learning,102.402915001,rot,90,0.936389923096,[],[],images/10.png,6,403,AB,False,True,1,False,23,5
403,True,1.5,structure_learning,103.911242008,unrot,0,0.620275974274,[],[],images/11.png,5,404,AB,True,False,2,True,1,24
404,True,1.5,structure_learning,105.416218042,unrot,0,0.615612983704,[],[],images/2.png,4,405,AB,True,True,0,True,1,26
405,True,1.5,structure_learning,106.921416998,unrot,0,0.664816856384,[],[],images/6.png,1,406,AB,True,True,0,False,2,32
406,True,1.5,structure_learning,108.42792201,unrot,0,0.859092950821,[],[],images/8.png,2,407,AB,True,True,0,False,3,31
407,True,1.5,structure_learning,109.933135986,unrot,0,0.751283884048,[],[],images/5.png,0,408,AB,True,True,0,False,4,33
408,True,1.5,structure_learning,111.438095093,rot,90,0.899053096771,[],[],images/1.png,3,409,AB,True,False,0,False,5,37
409,True,1.5,structure_learning,112.943410158,unrot,0,0.678322076797,[],[],images/8.png,2,410,AB,True,False,0,False,6,3
410,True,1.5,structure_learning,114.448441982,unrot,0,0.616461038589,[],[],images/2.png,4,411,AB,True,True,0,False,7,6
411,False,1.5,structure_learning,115.955170155,unrot,90,1.15239191055,[],[],images/8.png,2,412,AB,True,False,0,False,8,2
412,True,1.5,structure_learning,117.460121155,unrot,0,0.726212978363,[],[],images/6.png,1,413,AB,False,False,0,False,9,7
413,True,1.5,structure_learning,118.965532064,unrot,0,0.663681030273,[],[],images/2.png,4,414,AB,True,True,0,False,10,3
414,True,1.5,structure_learning,120.472388983,rot,90,1.47812199593,[],[],images/6.png,1,415,AB,True,False,0,False,11,2
415,True,1.5,structure_learning,121.978872061,unrot,0,0.692675113678,[],[],images/2.png,4,416,AB,True,False,0,False,12,2
416,True,1.5,structure_learning,123.484024048,unrot,0,1.05264306068,[],[],images/8.png,2,417,AB,True,True,0,False,13,5
417,True,1.5,structure_learning,124.990082979,unrot,0,0.753881931305,[],[],images/1.png,3,418,AB,True,True,0,False,14,9
418,True,1.5,structure_learning,126.495197058,unrot,0,0.62970995903,[],[],images/6.png,1,419,AB,True,True,0,False,15,4
419,True,1.5,structure_learning,128.000673056,unrot,0,0.585032939911,[],[],images/1.png,3,420,AB,True,True,0,False,16,2
420,True,1.5,structure_learning,129.50582099,unrot,0,0.51699090004,[],[],images/6.png,1,421,AB,True,True,0,False,17,2
421,True,1.5,structure_learning,131.011110067,rot,90,0.744688987732,[],[],images/5.png,0,422,AB,True,False,0,False,18,14
422,True,1.5,structure_learning,132.516009092,unrot,0,0.595690965652,[],[],images/1.png,3,423,AB,True,False,0,False,19,3
423,True,1.5,structure_learning,134.021054029,rot,90,1.48257493973,[],[],images/8.png,2,424,AB,True,False,0,False,20,7
424,True,1.5,structure_learning,135.526364088,unrot,0,0.800633907318,[],[],images/1.png,3,425,AB,True,False,0,False,21,2
425,True,1.5,structure_learning,137.031403065,rot,90,0.900650024414,[],[],images/6.png,1,426,AB,True,False,0,False,22,5
426,True,1.5,structure_learning,138.536777973,unrot,0,0.6544008255,[],[],images/5.png,0,427,AB,True,False,0,False,23,5
427,True,1.5,structure_learning,140.043003082,rot,90,0.921148061752,[],[],images/8.png,2,428,AB,True,False,0,False,24,4
428,True,1.5,structure_learning,141.547916174,unrot,0,0.7481508255,[],[],images/6.png,1,429,AB,True,False,0,False,25,3
429,True,1.5,structure_learning,143.052998066,unrot,0,0.640136957169,[],[],images/1.png,3,430,AB,True,True,0,False,26,5
430,True,1.5,structure_learning,144.558145046,unrot,0,0.690856933594,[],[],images/5.png,0,431,AB,True,True,0,False,27,4
431,True,1.5,structure_learning,146.063312054,unrot,0,0.622605085373,[],[],images/1.png,3,432,AB,True,True,0,False,28,2
432,False,1.5,structure_learning,147.568320036,rot,0,1.06480193138,[],[],images/8.png,2,433,AB,True,True,0,False,29,5
433,True,1.5,structure_learning,149.073255062,unrot,0,0.54990196228,[],[],images/2.png,4,434,AB,False,True,0,False,30,18
434,True,1.5,structure_learning,150.578379154,rot,90,0.785202980042,[],[],images/6.png,1,435,AB,True,False,0,False,31,6
435,False,1.5,structure_learning,152.083511114,rot,0,0.867985010147,[],[],images/8.png,2,436,AB,True,False,0,False,32,3
436,True,1.5,structure_learning,153.588593006,unrot,0,0.647042989731,[],[],images/6.png,1,437,AB,False,True,0,False,33,2
437,True,1.5,structure_learning,155.093753099,unrot,0,0.610481977463,[],[],images/2.png,4,438,AB,True,True,0,False,34,4
438,True,1.5,structure_learning,156.598773003,unrot,0,0.621736049652,[],[],images/6.png,1,439,AB,True,True,0,False,35,2
439,False,1.5,structure_learning,158.103877068,rot,0,0.864459991455,[],[],images/8.png,2,440,AB,True,True,0,False,36,4
440,True,1.5,structure_learning,159.609163046,unrot,0,0.492478132248,[],[],images/2.png,4,441,AB,False,True,0,False,37,3
441,True,1.5,structure_learning,161.114444017,unrot,0,0.614855051041,[],[],images/11.png,5,442,AB,True,True,2,True,1,38
442,False,1.5,structure_learning,162.619683027,unrot,90,0.657923936844,[],[],images/2.png,4,443,AB,True,False,0,True,1,2
443,True,1.5,structure_learning,164.124750137,unrot,0,0.653362035751,[],[],images/6.png,1,444,AB,False,False,0,False,2,5
444,True,1.5,structure_learning,165.629934072,unrot,0,0.672528982162,[],[],images/1.png,3,445,AB,True,True,0,False,3,13
445,True,1.5,structure_learning,167.134958982,rot,90,1.10670304298,[],[],images/6.png,1,446,AB,True,False,0,False,4,2
446,True,1.5,structure_learning,168.639950991,unrot,0,0.846349954605,[],[],images/1.png,3,447,AB,True,False,0,False,5,2
447,True,1.5,structure_learning,170.144821167,unrot,0,0.610992908478,[],[],images/2.png,4,448,AB,True,True,0,False,6,5
448,True,1.5,structure_learning,171.650053978,unrot,0,0.619708061218,[],[],images/11.png,5,449,AB,True,True,2,True,1,7
449,True,1.5,structure_learning,173.157516003,unrot,0,0.675265073776,[],[],images/10.png,6,450,AB,True,True,1,True,1,47
450,True,1.5,structure_learning,174.665815115,rot,90,0.822743177414,[],[],images/9.png,8,451,AB,True,False,1,False,2,54
451,True,1.5,structure_learning,176.171152115,unrot,0,0.728801012039,[],[],images/7.png,7,452,AB,True,False,1,False,3,52
452,True,1.5,structure_learning,177.676338196,unrot,0,0.787461042404,[],[],images/3.png,9,453,AB,True,True,1,False,4,51
453,True,1.5,structure_learning,179.181663036,unrot,0,0.711252212524,[],[],images/7.png,7,454,AB,True,True,1,False,5,2
454,True,1.5,structure_learning,180.686683178,unrot,0,0.730699062347,[],[],images/9.png,8,455,AB,True,True,1,False,6,4
455,True,1.5,structure_learning,182.191668034,unrot,0,0.614693880081,[],[],images/3.png,9,456,AB,True,True,1,False,7,3
456,True,1.5,structure_learning,183.696978092,rot,90,0.762712001801,[],[],images/7.png,7,457,AB,True,False,1,False,8,3
457,True,1.5,structure_learning,185.202039003,rot,90,0.909576892853,[],[],images/4.png,10,458,AB,True,True,1,False,9,57
458,False,1.5,structure_learning,186.707008123,unrot,90,0.601071834564,[],[],images/3.png,9,459,AB,True,True,1,False,10,3
459,True,1.5,structure_learning,188.212085962,unrot,0,0.620200872421,[],[],images/9.png,8,460,AB,False,False,1,False,11,5
460,True,1.5,structure_learning,189.717209101,unrot,0,1.33072185516,[],[],images/4.png,10,461,AB,True,True,1,False,12,3
461,True,1.5,structure_learning,191.222465038,unrot,0,0.62292098999,[],[],images/10.png,6,462,AB,True,True,1,False,13,12
462,True,1.5,structure_learning,192.731245995,unrot,0,0.697231054306,[],[],images/11.png,5,463,AB,True,True,2,True,1,14
463,True,1.5,structure_learning,194.236314058,unrot,0,0.660579919815,[],[],images/2.png,4,464,AB,True,True,0,True,1,16
464,True,1.5,structure_learning,195.74162817,unrot,0,0.648340940475,[],[],images/1.png,3,465,AB,True,True,0,False,2,18
465,True,1.5,structure_learning,197.246646166,unrot,0,1.13666200638,[],[],images/8.png,2,466,AB,True,True,0,False,3,26
466,True,1.5,structure_learning,198.751631021,unrot,0,0.615005970001,[],[],images/1.png,3,467,AB,True,True,0,False,4,2
467,True,1.5,structure_learning,200.256884098,unrot,0,0.634387016296,[],[],images/5.png,0,468,AB,True,True,0,False,5,37
468,True,1.5,structure_learning,201.761780977,unrot,0,0.605730056763,[],[],images/6.png,1,469,AB,True,True,0,False,6,23
469,True,1.5,structure_learning,203.26685214,unrot,0,0.584948062897,[],[],images/2.png,4,470,AB,True,True,0,False,7,6
470,True,1.5,structure_learning,204.772312164,unrot,0,0.627552032471,[],[],images/6.png,1,471,AB,True,True,0,False,8,2
471,True,1.5,structure_learning,206.277441978,unrot,0,0.750194072723,[],[],images/8.png,2,472,AB,True,True,0,False,9,6
472,True,1.5,structure_learning,207.782320976,rot,90,0.802426815033,[],[],images/6.png,1,473,AB,True,False,0,False,10,2
473,True,1.5,structure_learning,209.287403107,unrot,0,0.81215596199,[],[],images/2.png,4,474,AB,True,False,0,False,11,4
474,True,1.5,structure_learning,210.792419195,unrot,0,1.05415201187,[],[],images/8.png,2,475,AB,True,True,0,False,12,3
475,True,1.5,structure_learning,212.29729104,unrot,0,0.556771993637,[],[],images/5.png,0,476,AB,True,True,0,False,13,8
476,True,1.5,structure_learning,213.802258015,unrot,0,0.616046905518,[],[],images/8.png,2,477,AB,True,True,0,False,14,2
477,True,1.5,structure_learning,215.307065964,unrot,0,0.603455066681,[],[],images/6.png,1,478,AB,True,True,0,False,15,5
478,True,1.5,structure_learning,216.812129021,unrot,0,0.566777944565,[],[],images/1.png,3,479,AB,True,True,0,False,16,12
479,True,1.5,structure_learning,218.317106962,rot,90,0.857918024063,[],[],images/2.png,4,480,AB,True,False,0,False,17,6
480,True,1.5,structure_learning,219.822359085,unrot,0,0.596179008484,[],[],images/8.png,2,481,AB,True,False,0,False,18,4
481,True,1.5,structure_learning,221.328386068,unrot,0,0.639178991318,[],[],images/2.png,4,482,AB,True,True,0,False,19,2
482,True,1.5,structure_learning,222.833393097,unrot,0,0.63471698761,[],[],images/1.png,3,483,AB,True,True,0,False,20,4
483,True,1.5,structure_learning,224.33833313,unrot,0,0.622106790543,[],[],images/5.png,0,484,AB,True,True,0,False,21,8
484,True,1.5,structure_learning,225.843379974,unrot,0,1.06258606911,[],[],images/4.png,10,485,AB,True,True,1,True,1,24
485,True,1.5,structure_learning,227.348378181,unrot,0,0.613025903702,[],[],images/5.png,0,486,AB,True,True,0,True,1,2
486,True,1.5,structure_learning,228.853151083,rot,90,0.761008024216,[],[],images/1.png,3,487,AB,True,False,0,False,2,4
487,True,1.5,structure_learning,230.358169079,unrot,0,0.842422008514,[],[],images/8.png,2,488,AB,True,False,0,False,3,7
488,True,1.5,structure_learning,231.863054037,rot,90,1.06155586243,[],[],images/2.png,4,489,AB,True,False,0,False,4,7
489,True,1.5,structure_learning,233.368158102,unrot,0,0.584838151932,[],[],images/11.png,5,490,AB,True,False,2,True,1,27
490,True,1.5,structure_learning,234.874628067,unrot,0,0.754625082016,[],[],images/2.png,4,491,AB,True,True,0,True,1,2
491,True,1.5,structure_learning,236.37988615,unrot,0,0.718406915665,[],[],images/8.png,2,492,AB,True,True,0,False,2,4
492,True,1.5,structure_learning,237.884812117,unrot,0,0.538938045502,[],[],images/5.png,0,493,AB,True,True,0,False,3,7
493,True,1.5,structure_learning,239.389794111,rot,90,0.702950954437,[],[],images/1.png,3,494,AB,True,False,0,False,4,7
494,True,1.5,structure_learning,240.894769192,unrot,0,0.506105899811,[],[],images/5.png,0,495,AB,True,False,0,False,5,2
495,True,1.5,structure_learning,242.399695158,unrot,0,0.660356998444,[],[],images/4.png,10,496,AB,True,True,1,True,1,11
496,True,1.5,structure_learning,243.90486598,unrot,0,0.581248044968,[],[],images/10.png,6,497,AB,True,True,1,False,2,35
497,True,1.5,structure_learning,245.412919998,unrot,0,0.568938016891,[],[],images/11.png,5,498,AB,True,True,2,True,1,8
498,True,1.5,structure_learning,246.917962074,unrot,0,0.529354095459,[],[],images/10.png,6,499,AB,True,True,1,True,1,2
499,True,1.5,structure_learning,248.426273108,unrot,0,0.572562932968,[],[],images/3.png,9,500,AB,True,True,1,False,2,41
500,True,1.5,structure_learning,249.931704998,unrot,0,0.615852117538,[],[],images/9.png,8,501,AB,True,True,1,False,3,41
501,True,1.5,structure_learning,251.436542034,unrot,0,0.809846878052,[],[],images/7.png,7,502,AB,True,True,1,False,4,45
502,True,1.5,structure_learning,252.941595078,unrot,0,0.53472495079,[],[],images/9.png,8,503,AB,True,True,1,False,5,2
503,True,1.5,structure_learning,254.446426153,unrot,0,0.561842918396,[],[],images/4.png,10,504,AB,True,True,1,False,6,8
504,True,1.5,structure_learning,255.951482058,unrot,0,0.445973873138,[],[],images/9.png,8,505,AB,True,True,1,False,7,2
505,True,1.5,structure_learning,257.456546068,unrot,0,0.520653963089,[],[],images/4.png,10,506,AB,True,True,1,False,8,2
506,False,1.5,structure_learning,258.961558104,unrot,90,0.0309488773346,[],[],images/3.png,9,507,AB,True,False,1,False,9,7
507,True,1.5,structure_learning,260.466576099,unrot,0,0.542687892914,[],[],images/9.png,8,508,AB,False,False,1,False,10,3
508,True,1.5,structure_learning,261.971578121,unrot,0,0.51397895813,[],[],images/3.png,9,509,AB,True,True,1,False,11,2
509,True,1.5,structure_learning,263.476669073,unrot,0,0.539678096771,[],[],images/9.png,8,510,AB,True,True,1,False,12,2
510,True,1.5,structure_learning,264.983030081,rot,90,0.731445074081,[],[],images/10.png,6,511,AB,True,False,1,False,13,12
511,True,1.5,structure_learning,266.491470098,unrot,0,0.502157926559,[],[],images/3.png,9,512,AB,True,False,1,False,14,3
512,False,1.5,structure_learning,267.996850967,unrot,90,0.544266939163,[],[],images/4.png,10,513,AB,True,False,1,False,15,7
513,True,1.5,structure_learning,269.502557039,unrot,0,0.571817874908,[],[],images/5.png,0,514,AB,False,False,0,True,1,19
514,True,1.5,structure_learning,271.007496119,unrot,0,0.598770141602,[],[],images/6.png,1,515,AB,True,True,0,False,2,37
515,True,1.5,structure_learning,272.512525082,unrot,0,0.879765033722,[],[],images/1.png,3,516,AB,True,True,0,False,3,22
516,True,1.5,structure_learning,274.017726183,unrot,0,0.740077018738,[],[],images/8.png,2,517,AB,True,True,0,False,4,25
517,True,1.5,structure_learning,275.522611141,unrot,0,0.520869016647,[],[],images/5.png,0,518,AB,True,True,0,False,5,4
518,True,1.5,structure_learning,277.027547121,rot,90,0.65287899971,[],[],images/6.png,1,519,AB,True,False,0,False,6,4
519,True,1.5,structure_learning,278.532823086,unrot,0,0.551285028458,[],[],images/2.png,4,520,AB,True,False,0,False,7,29
520,True,1.5,structure_learning,280.03817606,rot,90,0.754709005356,[],[],images/1.png,3,521,AB,True,False,0,False,8,5
521,True,1.5,structure_learning,281.543178082,unrot,0,0.676906108856,[],[],images/6.png,1,522,AB,True,False,0,False,9,3
522,True,1.5,structure_learning,283.048184156,unrot,0,0.703691959381,[],[],images/8.png,2,523,AB,True,True,0,False,10,6
523,True,1.5,structure_learning,284.553169012,unrot,0,0.563842058182,[],[],images/6.png,1,524,AB,True,True,0,False,11,2
524,True,1.5,structure_learning,286.058165073,unrot,0,0.654624938965,[],[],images/5.png,0,525,AB,True,True,0,False,12,7
525,True,1.5,structure_learning,287.563030005,rot,90,0.71498298645,[],[],images/1.png,3,526,AB,True,False,0,False,13,5
526,True,1.5,structure_learning,289.068036079,unrot,0,0.53422498703,[],[],images/8.png,2,527,AB,True,False,0,False,14,4
527,True,1.5,structure_learning,290.572859049,unrot,0,0.577121973038,[],[],images/1.png,3,528,AB,True,True,0,False,15,2
528,True,1.5,structure_learning,292.077823162,unrot,0,0.604239940643,[],[],images/8.png,2,529,AB,True,True,0,False,16,2
529,True,1.5,structure_learning,293.582834959,unrot,0,0.583891153336,[],[],images/5.png,0,530,AB,True,True,0,False,17,5
530,True,1.5,structure_learning,295.088068962,unrot,0,0.586849927902,[],[],images/6.png,1,531,AB,True,True,0,False,18,7
531,True,1.5,structure_learning,296.593096018,unrot,0,0.582775831223,[],[],images/1.png,3,532,AB,True,True,0,False,19,4
532,True,1.5,structure_learning,298.098118067,unrot,0,0.522663831711,[],[],images/8.png,2,533,AB,True,True,0,False,20,4
533,True,1.5,structure_learning,299.603039026,unrot,0,0.597583055496,[],[],images/1.png,3,534,AB,True,True,0,False,21,2
534,True,1.5,structure_learning,301.108067989,unrot,0,0.497475862503,[],[],images/8.png,2,535,AB,True,True,0,False,22,2
535,True,1.5,structure_learning,302.613294125,unrot,0,0.723417043686,[],[],images/2.png,4,536,AB,True,True,0,False,23,16
536,True,1.5,structure_learning,304.118416071,unrot,0,0.757152080536,[],[],images/11.png,5,537,AB,True,True,2,True,1,39
537,True,1.5,structure_learning,305.624891043,rot,90,0.782660961151,[],[],images/10.png,6,538,AB,True,False,1,True,1,27
538,True,1.5,structure_learning,307.133188009,unrot,0,0.488754034042,[],[],images/9.png,8,539,AB,True,False,1,False,2,29
539,True,1.5,structure_learning,308.639518976,rot,90,0.633532047272,[],[],images/10.png,6,540,AB,True,False,1,False,3,2
540,True,1.5,structure_learning,310.147880077,rot,90,0.897417068481,[],[],images/7.png,7,541,AB,True,True,1,False,4,39
541,True,1.5,structure_learning,311.654436111,unrot,0,0.56382894516,[],[],images/9.png,8,542,AB,True,False,1,False,5,3
542,True,1.5,structure_learning,313.161031008,unrot,0,0.66238117218,[],[],images/3.png,9,543,AB,True,True,1,False,6,31
543,True,1.5,structure_learning,314.666285992,unrot,0,0.657577991486,[],[],images/7.png,7,544,AB,True,True,1,False,7,3
544,True,1.5,structure_learning,316.171576977,unrot,0,0.716610908508,[],[],images/4.png,10,545,AB,True,True,1,False,8,32
545,True,1.5,structure_learning,317.676854134,unrot,0,0.551451206207,[],[],images/5.png,0,546,AB,True,True,0,True,1,16
546,True,1.5,structure_learning,319.18296504,unrot,0,0.626077890396,[],[],images/1.png,3,547,AB,True,True,0,False,2,13
547,True,1.5,structure_learning,320.688183069,rot,90,0.678520917892,[],[],images/6.png,1,548,AB,True,False,0,False,3,17
548,True,1.5,structure_learning,322.193561077,unrot,0,0.465492963791,[],[],images/2.png,4,549,AB,True,False,0,False,4,13
549,True,1.5,structure_learning,323.698698044,unrot,0,0.698899030685,[],[],images/8.png,2,550,AB,True,True,0,False,5,15
550,True,1.5,structure_learning,325.203885078,unrot,0,0.591184139252,[],[],images/6.png,1,551,AB,True,True,0,False,6,3
551,True,1.5,structure_learning,326.708991051,unrot,0,0.50731086731,[],[],images/1.png,3,552,AB,True,True,0,False,7,5
552,True,1.5,structure_learning,328.213968039,unrot,0,0.558387994766,[],[],images/5.png,0,553,AB,True,True,0,False,8,7
553,True,1.5,structure_learning,329.71894598,rot,90,0.697892904282,[],[],images/1.png,3,554,AB,True,False,0,False,9,2
554,True,1.5,structure_learning,331.224407196,unrot,0,0.612396001816,[],[],images/6.png,1,555,AB,True,False,0,False,10,4
555,True,1.5,structure_learning,332.729345083,unrot,0,0.616822004318,[],[],images/1.png,3,556,AB,True,True,0,False,11,2
556,True,1.5,structure_learning,334.234405041,unrot,0,0.380592823029,[],[],images/8.png,2,557,AB,True,True,0,False,12,7
557,True,1.5,structure_learning,335.739422083,unrot,0,0.51925611496,[],[],images/5.png,0,558,AB,True,True,0,False,13,5
558,True,1.5,structure_learning,337.244529963,rot,90,0.691214084625,[],[],images/6.png,1,559,AB,True,False,0,False,14,4
559,True,1.5,structure_learning,338.749646187,unrot,0,0.533896923065,[],[],images/1.png,3,560,AB,True,False,0,False,15,4
560,True,1.5,structure_learning,340.254913092,rot,90,0.689897060394,[],[],images/5.png,0,561,AB,True,False,0,False,16,3
561,True,1.5,structure_learning,341.759847164,unrot,0,0.508488893509,[],[],images/8.png,2,562,AB,True,False,0,False,17,5
562,True,1.5,structure_learning,343.265259981,unrot,0,0.56754899025,[],[],images/1.png,3,563,AB,True,True,0,False,18,3
563,True,1.5,structure_learning,344.770379066,unrot,0,0.618479013443,[],[],images/6.png,1,564,AB,True,True,0,False,19,5
564,True,1.5,structure_learning,346.275444031,rot,90,0.710724115372,[],[],images/5.png,0,565,AB,True,False,0,False,20,4
565,True,1.5,structure_learning,347.780446053,unrot,0,0.521222114563,[],[],images/6.png,1,566,AB,True,False,0,False,21,2
566,True,1.5,structure_learning,349.285865068,unrot,0,0.548304080963,[],[],images/2.png,4,567,AB,True,True,0,False,22,18
567,True,1.5,structure_learning,350.790942192,unrot,0,0.607647180557,[],[],images/8.png,2,568,AB,True,True,0,False,23,6
568,True,1.5,structure_learning,352.295866966,unrot,0,0.610987186432,[],[],images/1.png,3,569,AB,True,True,0,False,24,6
569,True,1.5,structure_learning,353.801100969,rot,90,0.686635017395,[],[],images/5.png,0,570,AB,True,False,0,False,25,5
570,True,1.5,structure_learning,355.30700016,unrot,0,0.520823955536,[],[],images/1.png,3,571,AB,True,False,0,False,26,2
571,True,1.5,structure_learning,356.812658072,unrot,0,0.506758928299,[],[],images/2.png,4,572,AB,True,True,0,False,27,5
572,True,1.5,structure_learning,358.31902504,unrot,0,0.59681391716,[],[],images/6.png,1,573,AB,True,True,0,False,28,7
573,True,1.5,structure_learning,359.824553967,rot,90,0.728805065155,[],[],images/8.png,2,574,AB,True,False,0,False,29,6
574,True,1.5,structure_learning,361.329471111,unrot,0,0.571422100067,[],[],images/1.png,3,575,AB,True,False,0,False,30,4
575,True,1.5,structure_learning,362.834482193,unrot,0,0.542895078659,[],[],images/6.png,1,576,AB,True,True,0,False,31,3
576,True,1.5,structure_learning,364.339557171,unrot,0,0.562026977539,[],[],images/1.png,3,577,AB,True,True,0,False,32,2
577,True,1.5,structure_learning,365.844721079,unrot,0,0.803745985031,[],[],images/2.png,4,578,AB,True,True,0,False,33,6
578,True,1.5,structure_learning,367.349743128,unrot,0,0.608229875565,[],[],images/8.png,2,579,AB,True,True,0,False,34,5
579,True,1.5,structure_learning,368.854811192,unrot,0,0.563527822495,[],[],images/2.png,4,580,AB,True,True,0,False,35,2
580,True,1.5,structure_learning,370.360175133,unrot,0,0.535229921341,[],[],images/6.png,1,581,AB,True,True,0,False,36,5
581,True,1.5,structure_learning,371.865219116,unrot,0,0.514806985855,[],[],images/2.png,4,582,AB,True,True,0,False,37,2
582,True,1.5,structure_learning,373.370236158,rot,90,0.750040054321,[],[],images/8.png,2,583,AB,True,False,0,False,38,4
583,True,1.5,structure_learning,374.875463009,unrot,0,0.481711864471,[],[],images/5.png,0,584,AB,True,False,0,False,39,14
584,True,1.5,structure_learning,376.380321026,unrot,0,0.548756122589,[],[],images/6.png,1,585,AB,True,True,0,False,40,4
585,True,1.5,structure_learning,377.885472059,unrot,0,0.504500865936,[],[],images/8.png,2,586,AB,True,True,0,False,41,3
586,True,1.5,structure_learning,379.39034605,unrot,0,0.500282049179,[],[],images/1.png,3,587,AB,True,True,0,False,42,10
587,True,1.5,structure_learning,380.89530015,unrot,0,0.504026174545,[],[],images/5.png,0,588,AB,True,True,0,False,43,4
588,True,1.5,structure_learning,382.400062084,unrot,0,0.420010089874,[],[],images/1.png,3,589,AB,True,True,0,False,44,2
589,True,1.5,structure_learning,383.905253172,unrot,0,0.503064155579,[],[],images/6.png,1,590,AB,True,True,0,False,45,5
590,True,1.5,structure_learning,385.410513163,unrot,0,0.475057125092,[],[],images/8.png,2,591,AB,True,True,0,False,46,5
591,True,1.5,structure_learning,386.915354013,unrot,0,0.438933134079,[],[],images/5.png,0,592,AB,True,True,0,False,47,4
592,True,1.5,structure_learning,388.420192003,unrot,0,0.4506919384,[],[],images/8.png,2,593,AB,True,True,0,False,48,2
593,True,1.5,structure_learning,389.925115108,unrot,0,0.414613962173,[],[],images/5.png,0,594,AB,True,True,0,False,49,2
594,False,1.5,structure_learning,391.429881096,unrot,90,0.529453992844,[],[],images/6.png,1,595,AB,True,False,0,False,50,5
595,True,1.5,structure_learning,392.934993029,unrot,0,0.572974920273,[],[],images/1.png,3,596,AB,False,False,0,False,51,7
596,True,1.5,structure_learning,394.439949989,unrot,0,0.576805114746,[],[],images/5.png,0,597,AB,True,True,0,False,52,3
597,True,1.5,structure_learning,395.944820166,unrot,0,0.476999998093,[],[],images/6.png,1,598,AB,True,True,0,False,53,3
598,True,1.5,structure_learning,397.449889183,unrot,0,0.41715502739,[],[],images/1.png,3,599,AB,True,True,0,False,54,3
599,True,1.5,structure_learning,398.954838037,unrot,0,0.49992609024,[],[],images/8.png,2,600,AB,True,True,0,False,55,7
600,True,1.5,structure_learning,400.4598701,unrot,0,0.503284931183,[],[],images/1.png,3,601,AB,True,True,0,False,56,2
601,True,1.5,structure_learning,401.964891195,unrot,0,0.482696056366,[],[],images/6.png,1,602,AB,True,True,0,False,57,4
602,True,1.5,structure_learning,403.469969988,unrot,0,0.484671115875,[],[],images/2.png,4,603,AB,True,True,0,False,58,21
603,True,1.5,structure_learning,404.976485014,unrot,0,0.519865989685,[],[],images/1.png,3,604,AB,True,True,0,False,59,3
604,True,1.5,structure_learning,406.481755972,unrot,0,0.45939707756,[],[],images/2.png,4,605,AB,True,True,0,False,60,2
605,True,1.5,structure_learning,407.98687005,unrot,0,0.820719957352,[],[],images/6.png,1,606,AB,True,True,0,False,61,4
606,True,1.5,structure_learning,409.492006063,rot,90,0.666567087173,[],[],images/5.png,0,607,AB,True,False,0,False,62,10
607,True,1.5,structure_learning,410.996984005,rot,90,0.67792391777,[],[],images/8.png,2,608,AB,True,True,0,False,63,8
608,True,1.5,structure_learning,412.501832962,unrot,0,0.600342035294,[],[],images/6.png,1,609,AB,True,False,0,False,64,3
609,True,1.5,structure_learning,414.006906033,unrot,0,0.929584026337,[],[],images/5.png,0,610,AB,True,True,0,False,65,3
610,True,1.5,structure_learning,415.51206398,rot,90,1.04577898979,[],[],images/4.png,10,611,AB,True,False,1,True,1,66
611,True,1.5,structure_learning,417.017101049,unrot,0,0.505182981491,[],[],images/3.png,9,612,AB,True,False,1,False,2,69
612,True,1.5,structure_learning,418.52376914,unrot,0,0.69145488739,[],[],images/4.png,10,613,AB,True,True,1,False,3,2
613,True,1.5,structure_learning,420.028931141,rot,90,0.711698055267,[],[],images/5.png,0,614,AB,True,False,0,True,1,4
614,True,1.5,structure_learning,421.533938169,unrot,0,0.554561138153,[],[],images/8.png,2,615,AB,True,False,0,False,2,7
615,True,1.5,structure_learning,423.039028168,unrot,0,0.669152975082,[],[],images/5.png,0,616,AB,True,True,0,False,3,2
616,True,1.5,structure_learning,424.543940067,unrot,0,0.584848880768,[],[],images/6.png,1,617,AB,True,True,0,False,4,8
617,True,1.5,structure_learning,426.048957109,unrot,0,0.61195898056,[],[],images/1.png,3,618,AB,True,True,0,False,5,14
618,True,1.5,structure_learning,427.553845167,unrot,0,0.591312885284,[],[],images/6.png,1,619,AB,True,True,0,False,6,2
619,True,1.5,structure_learning,429.059085131,unrot,0,0.475445985794,[],[],images/2.png,4,620,AB,True,True,0,False,7,15
620,False,1.5,structure_learning,430.564347982,unrot,90,0.884295940399,[],[],images/8.png,2,621,AB,True,False,0,False,8,6
621,True,1.5,structure_learning,432.069182158,rot,90,0.674527168274,[],[],images/5.png,0,622,AB,False,True,0,False,9,6
622,True,1.5,structure_learning,433.574045181,unrot,0,0.573146820068,[],[],images/8.png,2,623,AB,True,False,0,False,10,2
623,True,1.5,structure_learning,435.078952074,unrot,0,0.584458112717,[],[],images/1.png,3,624,AB,True,True,0,False,11,6
624,True,1.5,structure_learning,436.583886147,unrot,0,0.563777923584,[],[],images/2.png,4,625,AB,True,True,0,False,12,5
625,True,1.5,structure_learning,438.089008093,unrot,0,0.559653043747,[],[],images/1.png,3,626,AB,True,True,0,False,13,2
626,True,1.5,structure_learning,439.593999147,unrot,0,0.603140115738,[],[],images/8.png,2,627,AB,True,True,0,False,14,4
627,True,1.5,structure_learning,441.09881115,rot,90,1.10887002945,[],[],images/6.png,1,628,AB,True,False,0,False,15,9
628,True,1.5,structure_learning,442.603928089,unrot,0,0.491168022156,[],[],images/8.png,2,629,AB,True,False,0,False,16,2
629,True,1.5,structure_learning,444.108781099,unrot,0,0.605700016022,[],[],images/6.png,1,630,AB,True,True,0,False,17,2
630,True,1.5,structure_learning,445.613948107,unrot,0,0.568788051605,[],[],images/5.png,0,631,AB,True,True,0,False,18,9
631,True,1.5,structure_learning,447.119143009,unrot,0,0.548590183258,[],[],images/4.png,10,632,AB,True,True,1,True,1,19
632,True,1.5,structure_learning,448.624236107,unrot,0,0.533019065857,[],[],images/10.png,6,633,AB,True,True,1,False,2,93
633,True,1.5,structure_learning,450.132423162,unrot,0,0.647574186325,[],[],images/11.png,5,634,AB,True,True,2,True,1,97
634,True,1.5,structure_learning,451.637552023,unrot,0,0.537014007568,[],[],images/10.png,6,635,AB,True,True,1,True,1,2
635,False,1.5,structure_learning,453.145514965,unrot,90,0.667418003082,[],[],images/3.png,9,636,AB,True,False,1,False,2,24
636,True,1.5,structure_learning,454.650567055,unrot,0,0.480138778687,[],[],images/4.png,10,637,AB,False,False,1,False,3,5
637,True,1.5,structure_learning,456.155673981,unrot,0,0.650568008423,[],[],images/9.png,8,638,AB,True,True,1,False,4,96
638,True,1.5,structure_learning,457.660624027,rot,90,0.718961000443,[],[],images/7.png,7,639,AB,True,False,1,False,5,95
639,True,1.5,structure_learning,459.16558814,unrot,0,0.585320949554,[],[],images/3.png,9,640,AB,True,False,1,False,6,4
640,True,1.5,structure_learning,460.671036959,unrot,0,0.660146951675,[],[],images/4.png,10,641,AB,True,True,1,False,7,4
641,True,1.5,structure_learning,462.176030159,unrot,0,0.541180849075,[],[],images/10.png,6,642,AB,True,True,1,False,8,7
642,True,1.5,structure_learning,463.684098005,unrot,0,0.663900852203,[],[],images/7.png,7,643,AB,True,True,1,False,9,4
643,True,1.5,structure_learning,465.189159155,unrot,0,0.929407835007,[],[],images/3.png,9,644,AB,True,True,1,False,10,4
644,True,1.5,structure_learning,466.694216967,unrot,0,0.614901065826,[],[],images/9.png,8,645,AB,True,True,1,False,11,7
645,True,1.5,structure_learning,468.199110031,rot,90,0.7390229702,[],[],images/4.png,10,646,AB,True,False,1,False,12,5
646,True,1.5,structure_learning,469.704163074,unrot,0,0.550187110901,[],[],images/9.png,8,647,AB,True,False,1,False,13,2
647,True,1.5,structure_learning,471.20899415,unrot,0,0.624939203262,[],[],images/4.png,10,648,AB,True,True,1,False,14,2
648,True,1.5,structure_learning,472.713951111,unrot,0,0.652474880219,[],[],images/5.png,0,649,AB,True,True,0,True,1,18
649,True,1.5,structure_learning,474.218939066,unrot,0,0.615216970444,[],[],images/6.png,1,650,AB,True,True,0,False,2,20
650,True,1.5,structure_learning,475.724397182,unrot,0,0.697550773621,[],[],images/5.png,0,651,AB,True,True,0,False,3,2
651,True,1.5,structure_learning,477.229506969,unrot,0,0.605610132217,[],[],images/6.png,1,652,AB,True,True,0,False,4,2
652,True,1.5,structure_learning,478.734941959,unrot,0,0.569079875946,[],[],images/8.png,2,653,AB,True,True,0,False,5,24
653,True,1.5,structure_learning,480.239912033,rot,90,0.613780975342,[],[],images/6.png,1,654,AB,True,False,0,False,6,2
654,True,1.5,structure_learning,481.745118141,unrot,0,0.575844049454,[],[],images/1.png,3,655,AB,True,False,0,False,7,29
655,True,1.5,structure_learning,483.250174046,unrot,0,0.515459060669,[],[],images/2.png,4,656,AB,True,True,0,False,8,31
656,True,1.5,structure_learning,484.75525403,unrot,0,0.606233119965,[],[],images/1.png,3,657,AB,True,True,0,False,9,2
657,True,1.5,structure_learning,486.260177135,rot,90,0.674510002136,[],[],images/5.png,0,658,AB,True,False,0,False,10,7
658,True,1.5,structure_learning,487.765186071,unrot,0,0.620554924011,[],[],images/6.png,1,659,AB,True,False,0,False,11,5
659,True,1.5,structure_learning,489.270203114,unrot,0,0.822643995285,[],[],images/5.png,0,660,AB,True,True,0,False,12,2
660,True,1.5,structure_learning,490.775262117,unrot,0,0.531527042389,[],[],images/1.png,3,661,AB,True,True,0,False,13,4
661,True,1.5,structure_learning,492.280544043,rot,90,0.830304145813,[],[],images/2.png,4,662,AB,True,False,0,False,14,6
662,True,1.5,structure_learning,493.785798073,unrot,0,0.553763866425,[],[],images/1.png,3,663,AB,True,False,0,False,15,2
663,True,1.5,structure_learning,495.29082799,rot,90,0.654345989227,[],[],images/8.png,2,664,AB,True,False,0,False,16,11
664,True,1.5,structure_learning,496.795920134,unrot,0,0.521032094955,[],[],images/5.png,0,665,AB,True,False,0,False,17,5
665,True,1.5,structure_learning,498.301001072,unrot,0,0.493139028549,[],[],images/1.png,3,666,AB,True,True,0,False,18,3
666,True,1.5,structure_learning,499.806245089,unrot,0,0.591938018799,[],[],images/6.png,1,667,AB,True,True,0,False,19,8
667,True,1.5,structure_learning,7.48634338379e-05,rot,90,0.931769132614,[],[],images/5.png,0,668,AB,True,False,0,False,20,3
668,True,1.5,structure_learning,1.5157790184,rot,90,0.967177867889,[],[],images/8.png,2,669,AB,True,True,0,False,21,5
669,True,1.5,structure_learning,3.02098703384,unrot,0,1.02454805374,[],[],images/6.png,1,670,AB,True,False,0,False,22,3
670,True,1.5,structure_learning,4.52614402771,rot,90,0.773572921753,[],[],images/8.png,2,671,AB,True,False,0,False,23,2
671,False,1.5,structure_learning,6.03275704384,rot,0,0.824502944946,[],[],images/2.png,4,672,AB,True,False,0,False,24,10
672,True,1.5,structure_learning,7.53792905807,unrot,0,0.818633079529,[],[],images/11.png,5,673,AB,False,True,2,True,1,39
673,True,1.5,structure_learning,9.04288887978,unrot,0,0.837677001953,[],[],images/2.png,4,674,AB,True,True,0,True,1,2
674,True,1.5,structure_learning,10.5480649471,unrot,0,0.960096120834,[],[],images/1.png,3,675,AB,True,True,0,False,2,9
675,True,1.5,structure_learning,12.0532028675,unrot,0,0.653398990631,[],[],images/8.png,2,676,AB,True,True,0,False,3,5
676,True,1.5,structure_learning,13.5583548546,unrot,0,0.600839138031,[],[],images/1.png,3,677,AB,True,True,0,False,4,2
677,True,1.5,structure_learning,15.063585043,unrot,0,0.564699888229,[],[],images/5.png,0,678,AB,True,True,0,False,5,10
678,True,1.5,structure_learning,16.5686130524,rot,90,0.696840047836,[],[],images/1.png,3,679,AB,True,False,0,False,6,2
679,True,1.5,structure_learning,18.0738060474,unrot,0,0.650766134262,[],[],images/8.png,2,680,AB,True,False,0,False,7,4
680,True,1.5,structure_learning,19.5789940357,unrot,0,0.812847852707,[],[],images/6.png,1,681,AB,True,True,0,False,8,11
681,True,1.5,structure_learning,21.0841259956,rot,90,0.658663988113,[],[],images/5.png,0,682,AB,True,False,0,False,9,4
682,True,1.5,structure_learning,22.589081049,rot,90,0.948068141937,[],[],images/8.png,2,683,AB,True,True,0,False,10,3
683,True,1.5,structure_learning,24.0940880775,unrot,0,0.560477972031,[],[],images/5.png,0,684,AB,True,False,0,False,11,2
684,True,1.5,structure_learning,25.5989570618,unrot,0,0.754703044891,[],[],images/8.png,2,685,AB,True,True,0,False,12,2
685,True,1.5,structure_learning,27.1040818691,unrot,0,0.550914049149,[],[],images/1.png,3,686,AB,True,True,0,False,13,7
686,True,1.5,structure_learning,28.609418869,rot,90,1.07216405869,[],[],images/6.png,1,687,AB,True,False,0,False,14,6
687,True,1.5,structure_learning,30.1145329475,unrot,0,0.605051994324,[],[],images/5.png,0,688,AB,True,False,0,False,15,4
688,True,1.5,structure_learning,31.6196649075,unrot,0,0.632578849792,[],[],images/4.png,10,689,AB,True,True,1,True,1,41
689,True,1.5,structure_learning,33.1248459816,unrot,0,0.513535022736,[],[],images/10.png,6,690,AB,True,True,1,False,2,48
690,True,1.5,structure_learning,34.6330940723,unrot,0,0.636598110199,[],[],images/11.png,5,691,AB,True,True,2,True,1,18
691,True,1.5,structure_learning,36.1380610466,unrot,0,0.599992990494,[],[],images/2.png,4,692,AB,True,True,0,True,1,18
692,True,1.5,structure_learning,37.6431310177,unrot,0,0.555930137634,[],[],images/6.png,1,693,AB,True,True,0,False,2,6
693,True,1.5,structure_learning,39.1483180523,unrot,0,0.488102912903,[],[],images/5.png,0,694,AB,True,True,0,False,3,6
694,True,1.5,structure_learning,40.6531639099,unrot,0,0.554953098297,[],[],images/1.png,3,695,AB,True,True,0,False,4,9
695,True,1.5,structure_learning,42.1583180428,unrot,0,0.572928905487,[],[],images/8.png,2,696,AB,True,True,0,False,5,11
696,True,1.5,structure_learning,43.6648609638,unrot,0,0.568277835846,[],[],images/6.png,1,697,AB,True,True,0,False,6,4
697,True,1.5,structure_learning,45.1700260639,unrot,0,0.49228310585,[],[],images/5.png,0,698,AB,True,True,0,False,7,4
698,True,1.5,structure_learning,46.6751248837,rot,90,0.814824819565,[],[],images/1.png,3,699,AB,True,False,0,False,8,4
699,True,1.5,structure_learning,48.1802420616,unrot,0,0.641972064972,[],[],images/2.png,4,700,AB,True,False,0,False,9,8
700,True,1.5,structure_learning,49.6852679253,unrot,0,0.50209903717,[],[],images/8.png,2,701,AB,True,True,0,False,10,5
701,True,1.5,structure_learning,51.1903688908,unrot,0,0.513646125793,[],[],images/2.png,4,702,AB,True,True,0,False,11,2
702,False,1.5,structure_learning,52.6953859329,unrot,90,0.628365039825,[],[],images/11.png,5,703,AB,True,False,2,True,1,12
703,False,1.5,structure_learning,54.2003340721,unrot,90,0.909398078918,[],[],images/2.png,4,704,AB,False,True,0,True,1,2
704,True,1.5,structure_learning,55.7055828571,rot,90,0.723251819611,[],[],images/6.png,1,705,AB,False,True,0,False,2,8
705,True,1.5,structure_learning,57.210613966,rot,90,0.734903812408,[],[],images/5.png,0,706,AB,True,True,0,False,3,8
706,True,1.5,structure_learning,58.715692997,unrot,0,0.593379020691,[],[],images/8.png,2,707,AB,True,False,0,False,4,6
707,True,1.5,structure_learning,60.2206380367,unrot,0,0.652706861496,[],[],images/1.png,3,708,AB,True,True,0,False,5,9
708,True,1.5,structure_learning,61.7257668972,unrot,0,0.521241903305,[],[],images/6.png,1,709,AB,True,True,0,False,6,4
709,True,1.5,structure_learning,63.2309670448,unrot,0,0.556367874146,[],[],images/8.png,2,710,AB,True,True,0,False,7,3
710,True,1.5,structure_learning,64.7361710072,unrot,0,0.520035028458,[],[],images/1.png,3,711,AB,True,True,0,False,8,3
711,True,1.5,structure_learning,66.2413830757,rot,90,0.748117923737,[],[],images/8.png,2,712,AB,True,False,0,False,9,2
712,True,1.5,structure_learning,67.7463588715,rot,90,0.63262295723,[],[],images/5.png,0,713,AB,True,True,0,False,10,7
713,True,1.5,structure_learning,69.2513608932,unrot,0,0.865020990372,[],[],images/1.png,3,714,AB,True,False,0,False,11,3
714,True,1.5,structure_learning,70.7563400269,unrot,0,0.621989011765,[],[],images/6.png,1,715,AB,True,True,0,False,12,6
715,True,1.5,structure_learning,72.2614600658,unrot,0,0.466609954834,[],[],images/8.png,2,716,AB,True,True,0,False,13,4
716,True,1.5,structure_learning,73.7665770054,unrot,0,0.875996112823,[],[],images/2.png,4,717,AB,True,True,0,False,14,13
717,True,1.5,structure_learning,75.2716748714,unrot,0,0.656952142715,[],[],images/6.png,1,718,AB,True,True,0,False,15,3
718,True,1.5,structure_learning,76.7766320705,unrot,0,0.509782075882,[],[],images/8.png,2,719,AB,True,True,0,False,16,3
719,True,1.5,structure_learning,78.2816689014,unrot,0,0.481839895248,[],[],images/5.png,0,720,AB,True,True,0,False,17,7
720,True,1.5,structure_learning,79.7865018845,unrot,0,0.461605072021,[],[],images/8.png,2,721,AB,True,True,0,False,18,2
721,True,1.5,structure_learning,81.2915709019,rot,90,0.713059902191,[],[],images/5.png,0,722,AB,True,False,0,False,19,2
722,True,1.5,structure_learning,82.7965040207,unrot,0,0.681263923645,[],[],images/6.png,1,723,AB,True,False,0,False,20,5
723,True,1.5,structure_learning,84.3030428886,unrot,0,0.812013864517,[],[],images/5.png,0,724,AB,True,True,0,False,21,2
724,True,1.5,structure_learning,85.8078980446,unrot,0,0.640148878098,[],[],images/1.png,3,725,AB,True,True,0,False,22,11
725,True,1.5,structure_learning,87.3133659363,unrot,0,0.452653884888,[],[],images/5.png,0,726,AB,True,True,0,False,23,2
726,True,1.5,structure_learning,88.8185348511,unrot,0,0.543709993362,[],[],images/1.png,3,727,AB,True,True,0,False,24,2
727,True,1.5,structure_learning,90.323499918,rot,90,0.755582809448,[],[],images/2.png,4,728,AB,True,False,0,False,25,11
728,True,1.5,structure_learning,91.82853508,unrot,0,0.598824977875,[],[],images/11.png,5,729,AB,True,False,2,True,1,26
729,True,1.5,structure_learning,93.3337528706,unrot,0,0.583365917206,[],[],images/10.png,6,730,AB,True,True,1,True,1,40
730,True,1.5,structure_learning,94.8417310715,unrot,0,0.682204961777,[],[],images/9.png,8,731,AB,True,True,1,False,2,84
731,True,1.5,structure_learning,96.3467850685,unrot,0,0.797085046768,[],[],images/7.png,7,732,AB,True,True,1,False,3,89
732,True,1.5,structure_learning,97.8519170284,unrot,0,0.585443973541,[],[],images/4.png,10,733,AB,True,True,1,False,4,44
733,True,1.5,structure_learning,99.3579440117,unrot,0,0.715893983841,[],[],images/3.png,9,734,AB,True,True,1,False,5,90
734,True,1.5,structure_learning,100.863296986,unrot,0,0.536912202835,[],[],images/9.png,8,735,AB,True,True,1,False,6,4
735,True,1.5,structure_learning,102.368218899,rot,90,0.637255907059,[],[],images/4.png,10,736,AB,True,False,1,False,7,3
736,False,1.5,structure_learning,103.87357688,unrot,90,0.392722845078,[],[],images/9.png,8,737,AB,True,True,1,False,8,2
737,True,1.5,structure_learning,105.37885499,unrot,0,0.554869174957,[],[],images/7.png,7,738,AB,False,False,1,False,9,6
738,True,1.5,structure_learning,106.884074926,unrot,0,0.515913009644,[],[],images/10.png,6,739,AB,True,True,1,False,10,9
739,True,1.5,structure_learning,108.392334938,unrot,0,0.631353855133,[],[],images/9.png,8,740,AB,True,True,1,False,11,3
740,True,1.5,structure_learning,109.897268057,unrot,0,0.579520940781,[],[],images/3.png,9,741,AB,True,True,1,False,12,7
741,True,1.5,structure_learning,111.402428865,unrot,0,0.495666027069,[],[],images/9.png,8,742,AB,True,True,1,False,13,2
742,True,1.5,structure_learning,112.907335043,unrot,0,0.551159143448,[],[],images/10.png,6,743,AB,True,True,1,False,14,4
743,True,1.5,structure_learning,114.415783882,unrot,0,0.586407899857,[],[],images/7.png,7,744,AB,True,True,1,False,15,6
744,True,1.5,structure_learning,115.920907021,unrot,0,0.644966125488,[],[],images/3.png,9,745,AB,True,True,1,False,16,4
745,True,1.5,structure_learning,117.426934004,unrot,0,0.616649866104,[],[],images/4.png,10,746,AB,True,True,1,False,17,10
746,True,1.5,structure_learning,118.932280064,unrot,0,0.580275058746,[],[],images/3.png,9,747,AB,True,True,1,False,18,2
747,True,1.5,structure_learning,120.437388897,unrot,0,0.504311084747,[],[],images/9.png,8,748,AB,True,True,1,False,19,6
748,True,1.5,structure_learning,121.942345858,rot,90,0.702346086502,[],[],images/10.png,6,749,AB,True,False,1,False,20,6
749,True,1.5,structure_learning,123.45302701,unrot,0,0.457981109619,[],[],images/7.png,7,750,AB,True,False,1,False,21,6
750,True,1.5,structure_learning,124.958133936,rot,90,0.741445064545,[],[],images/4.png,10,751,AB,True,False,1,False,22,5
751,True,1.5,structure_learning,126.463216066,unrot,0,0.521023035049,[],[],images/5.png,0,752,AB,True,False,0,True,1,26
752,False,1.5,structure_learning,127.968261957,rot,0,0.637414932251,[],[],images/1.png,3,753,AB,True,True,0,False,2,26
753,True,1.5,structure_learning,129.473469973,rot,90,0.862215042114,[],[],images/2.png,4,754,AB,False,False,0,False,3,26
754,True,1.5,structure_learning,130.979848862,unrot,0,0.649355888367,[],[],images/11.png,5,755,AB,True,False,2,True,1,26
755,False,1.5,structure_learning,132.485024929,unrot,90,0.953454971313,[],[],images/2.png,4,756,AB,True,False,0,True,1,2
756,True,1.5,structure_learning,133.991991997,unrot,0,0.575075149536,[],[],images/11.png,5,757,AB,False,False,2,True,1,2
757,True,1.5,structure_learning,135.497426987,unrot,0,0.56764292717,[],[],images/10.png,6,758,AB,True,True,1,True,1,9
758,True,1.5,structure_learning,137.005693913,unrot,0,0.595113039017,[],[],images/7.png,7,759,AB,True,True,1,False,2,9
759,True,1.5,structure_learning,138.510889053,unrot,0,0.670210123062,[],[],images/4.png,10,760,AB,True,True,1,False,3,9
760,True,1.5,structure_learning,140.016041994,unrot,0,0.559415817261,[],[],images/10.png,6,761,AB,True,True,1,False,4,3
761,True,1.5,structure_learning,141.524327993,unrot,0,0.65867805481,[],[],images/9.png,8,762,AB,True,True,1,False,5,14
762,True,1.5,structure_learning,143.029345036,unrot,0,0.638478040695,[],[],images/3.png,9,763,AB,True,True,1,False,6,16
763,True,1.5,structure_learning,144.534591913,unrot,0,0.499217987061,[],[],images/7.png,7,764,AB,True,True,1,False,7,5
764,True,1.5,structure_learning,146.039682865,unrot,0,0.542745113373,[],[],images/9.png,8,765,AB,True,True,1,False,8,3
765,True,1.5,structure_learning,147.54468298,rot,90,0.653228998184,[],[],images/10.png,6,766,AB,True,False,1,False,9,5
766,True,1.5,structure_learning,149.055831909,unrot,0,0.496217012405,[],[],images/7.png,7,767,AB,True,False,1,False,10,3
767,True,1.5,structure_learning,150.560925007,rot,90,0.674719810486,[],[],images/9.png,8,768,AB,True,False,1,False,11,3
768,True,1.5,structure_learning,152.067477942,unrot,0,0.525299072266,[],[],images/3.png,9,769,AB,True,False,1,False,12,6
769,True,1.5,structure_learning,153.572828054,unrot,0,0.58495593071,[],[],images/9.png,8,770,AB,True,True,1,False,13,2
770,True,1.5,structure_learning,155.077887058,unrot,0,0.62076997757,[],[],images/3.png,9,771,AB,True,True,1,False,14,2
771,True,1.5,structure_learning,156.582969904,unrot,0,0.716642141342,[],[],images/10.png,6,772,AB,True,True,1,False,15,6
772,True,1.5,structure_learning,158.091238022,unrot,0,0.561004161835,[],[],images/11.png,5,773,AB,True,True,2,True,1,16
773,True,1.5,structure_learning,159.596638918,unrot,0,0.498002052307,[],[],images/10.png,6,774,AB,True,True,1,True,1,2
774,True,1.5,structure_learning,161.104850054,unrot,0,0.620827198029,[],[],images/3.png,9,775,AB,True,True,1,False,2,4
775,True,1.5,structure_learning,162.609982014,unrot,0,0.502108812332,[],[],images/10.png,6,776,AB,True,True,1,False,3,2
776,True,1.5,structure_learning,164.118257046,unrot,0,0.537440061569,[],[],images/3.png,9,777,AB,True,True,1,False,4,2
777,True,1.5,structure_learning,165.623538971,unrot,0,0.596596002579,[],[],images/9.png,8,778,AB,True,True,1,False,5,8
778,True,1.5,structure_learning,167.128777027,unrot,0,0.568114042282,[],[],images/3.png,9,779,AB,True,True,1,False,6,2
779,True,1.5,structure_learning,168.634031057,unrot,0,0.595924854279,[],[],images/9.png,8,780,AB,True,True,1,False,7,2
780,True,1.5,structure_learning,170.139037848,unrot,0,0.687201976776,[],[],images/7.png,7,781,AB,True,True,1,False,8,14
781,True,1.5,structure_learning,171.643996954,rot,90,0.748148918152,[],[],images/9.png,8,782,AB,True,False,1,False,9,2
782,True,1.5,structure_learning,173.148941994,unrot,0,0.556509971619,[],[],images/10.png,6,783,AB,True,False,1,False,10,7
783,True,1.5,structure_learning,174.657050848,unrot,0,0.589953184128,[],[],images/11.png,5,784,AB,True,True,2,True,1,11
784,False,1.5,structure_learning,176.164016962,rot,0,0.76149392128,[],[],images/2.png,4,785,AB,True,True,0,True,1,29
785,True,1.5,structure_learning,177.669211864,rot,90,0.821197986603,[],[],images/6.png,1,786,AB,False,False,0,False,2,63
786,True,1.5,structure_learning,179.17444706,unrot,0,0.934674024582,[],[],images/8.png,2,787,AB,True,False,0,False,3,66
787,True,1.5,structure_learning,180.679336071,unrot,0,0.731822967529,[],[],images/6.png,1,788,AB,True,True,0,False,4,2
788,True,1.5,structure_learning,182.184505939,unrot,0,0.870568990707,[],[],images/2.png,4,789,AB,True,True,0,False,5,4
789,True,1.5,structure_learning,183.689737082,unrot,0,0.596049070358,[],[],images/6.png,1,790,AB,True,True,0,False,6,2
790,True,1.5,structure_learning,185.194730997,rot,90,0.974928855896,[],[],images/2.png,4,791,AB,True,False,0,False,7,2
791,True,1.5,structure_learning,186.700083017,unrot,0,0.531857967377,[],[],images/6.png,1,792,AB,True,False,0,False,8,2
792,True,1.5,structure_learning,188.205195904,unrot,0,0.615128993988,[],[],images/5.png,0,793,AB,True,True,0,False,9,41
793,True,1.5,structure_learning,189.710200071,unrot,0,0.84917807579,[],[],images/4.png,10,794,AB,True,True,1,True,1,34
794,True,1.5,structure_learning,191.215259075,unrot,0,0.59849190712,[],[],images/5.png,0,795,AB,True,True,0,True,1,2
795,True,1.5,structure_learning,192.720144033,rot,90,0.841606855392,[],[],images/1.png,3,796,AB,True,False,0,False,2,43
796,True,1.5,structure_learning,194.225560904,unrot,0,0.72419500351,[],[],images/5.png,0,797,AB,True,False,0,False,3,2
797,True,1.5,structure_learning,195.730913877,rot,90,1.09512996674,[],[],images/4.png,10,798,AB,True,False,1,True,1,4
798,True,1.5,structure_learning,197.236186028,unrot,0,0.521517038345,[],[],images/10.png,6,799,AB,True,False,1,False,2,16
799,True,1.5,structure_learning,198.744498014,unrot,0,0.68431186676,[],[],images/7.png,7,800,AB,True,True,1,False,3,19
800,True,1.5,structure_learning,200.24967885,unrot,0,0.541833877563,[],[],images/10.png,6,801,AB,True,True,1,False,4,2
801,True,1.5,structure_learning,201.757703066,rot,90,0.666462898254,[],[],images/7.png,7,802,AB,True,False,1,False,5,2
802,True,1.5,structure_learning,203.262738943,unrot,0,0.562047958374,[],[],images/10.png,6,803,AB,True,False,1,False,6,2
803,False,1.5,structure_learning,204.770803928,unrot,90,0.844579219818,[],[],images/11.png,5,804,AB,True,False,2,True,1,20
804,True,1.5,structure_learning,206.275901079,rot,90,1.09629106522,[],[],images/2.png,4,805,AB,False,True,0,True,1,14
805,True,1.5,structure_learning,207.780905962,unrot,0,0.621244907379,[],[],images/1.png,3,806,AB,True,False,0,False,2,10
806,True,1.5,structure_learning,209.286010027,unrot,0,0.593161821365,[],[],images/6.png,1,807,AB,True,True,0,False,3,15
807,True,1.5,structure_learning,210.791001081,rot,90,0.693601131439,[],[],images/5.png,0,808,AB,True,False,0,False,4,11
808,True,1.5,structure_learning,212.296092987,unrot,0,0.576754808426,[],[],images/6.png,1,809,AB,True,False,0,False,5,2
809,True,1.5,structure_learning,213.801174879,unrot,0,0.636192083359,[],[],images/8.png,2,810,AB,True,True,0,False,6,23
810,True,1.5,structure_learning,215.306041956,unrot,0,0.544537782669,[],[],images/5.png,0,811,AB,True,True,0,False,7,3
811,True,1.5,structure_learning,216.810850859,unrot,0,0.572024106979,[],[],images/8.png,2,812,AB,True,True,0,False,8,2
812,True,1.5,structure_learning,218.315834045,unrot,0,0.480368852615,[],[],images/5.png,0,813,AB,True,True,0,False,9,2
813,True,1.5,structure_learning,219.820801973,unrot,0,0.492208003998,[],[],images/1.png,3,814,AB,True,True,0,False,10,8
814,True,1.5,structure_learning,221.325734854,unrot,0,0.520021915436,[],[],images/5.png,0,815,AB,True,True,0,False,11,2
815,True,1.5,structure_learning,222.830623865,rot,90,0.675890922546,[],[],images/4.png,10,816,AB,True,False,1,True,1,18
816,True,1.5,structure_learning,224.33594203,unrot,0,0.59090590477,[],[],images/5.png,0,817,AB,True,False,0,True,1,2
817,True,1.5,structure_learning,225.840820074,rot,90,0.659204006195,[],[],images/6.png,1,818,AB,True,False,0,False,2,9
818,True,1.5,structure_learning,227.347751856,unrot,0,0.485754013062,[],[],images/5.png,0,819,AB,True,False,0,False,3,2
819,True,1.5,structure_learning,228.852617979,unrot,0,0.62485408783,[],[],images/6.png,1,820,AB,True,True,0,False,4,2
820,True,1.5,structure_learning,230.35767293,rot,90,0.677723884583,[],[],images/1.png,3,821,AB,True,False,0,False,5,7
821,True,1.5,structure_learning,231.862844944,unrot,0,0.576640129089,[],[],images/8.png,2,822,AB,True,False,0,False,6,10
822,True,1.5,structure_learning,233.367757082,unrot,0,0.596425056458,[],[],images/1.png,3,823,AB,True,True,0,False,7,2
823,True,1.5,structure_learning,234.872750044,unrot,0,0.528677940369,[],[],images/8.png,2,824,AB,True,True,0,False,8,2
824,True,1.5,structure_learning,236.377681017,unrot,0,0.444730043411,[],[],images/6.png,1,825,AB,True,True,0,False,9,5
825,True,1.5,structure_learning,237.882781982,unrot,0,0.495675802231,[],[],images/8.png,2,826,AB,True,True,0,False,10,2
826,True,1.5,structure_learning,239.387928963,unrot,0,0.555609226227,[],[],images/5.png,0,827,AB,True,True,0,False,11,8
827,True,1.5,structure_learning,240.892822981,unrot,0,0.479702949524,[],[],images/6.png,1,828,AB,True,True,0,False,12,3
828,True,1.5,structure_learning,242.397938013,unrot,0,0.546709060669,[],[],images/8.png,2,829,AB,True,True,0,False,13,3
829,True,1.5,structure_learning,243.902988911,unrot,0,1.01151204109,[],[],images/2.png,4,830,AB,True,True,0,False,14,25
830,True,1.5,structure_learning,245.408180952,unrot,0,0.585849046707,[],[],images/1.png,3,831,AB,True,True,0,False,15,8
831,True,1.5,structure_learning,246.913110971,unrot,0,0.454525947571,[],[],images/8.png,2,832,AB,True,True,0,False,16,3
832,True,1.5,structure_learning,248.417919874,unrot,0,0.489879131317,[],[],images/1.png,3,833,AB,True,True,0,False,17,2
833,True,1.5,structure_learning,249.923002958,unrot,0,0.47783613205,[],[],images/5.png,0,834,AB,True,True,0,False,18,7
