,correct,duration,exp_stage,onset,response,rotation,rt,secondary_responses,secondary_rts,stim_file,stim_index,trialnum,subjid,correct_shift,congruent_rot,community,community_cross,steps_within_community,steps_since_seen
0,False,1.5,structure_learning,2.01733803749,-1,0,-1.0,[],[],images/9.png,0,1,JCH,,False,0,,1,0
1,False,1.5,structure_learning,3.52892398834,-1,0,-1.0,[],[],images/7.png,3,2,JCH,False,True,0,False,2,0
2,True,1.5,structure_learning,5.03423094749,unrot,0,0.0662829875946,['right'],[1.0251750946044922],images/11.png,4,3,JCH,False,True,0,False,3,0
3,False,1.5,structure_learning,6.53930902481,-1,90,-1.0,[],[],images/7.png,3,4,JCH,True,False,0,False,4,2
4,True,1.5,structure_learning,8.04457306862,unrot,0,0.940257072449,[],[],images/8.png,1,5,JCH,False,False,0,False,5,0
5,False,1.5,structure_learning,9.54976701736,-1,0,-1.0,[],[],images/3.png,2,6,JCH,True,True,0,False,6,0
6,False,1.5,structure_learning,11.0552780628,unrot,90,0.513370990753,[],[],images/7.png,3,7,JCH,False,False,0,False,7,3
7,True,1.5,structure_learning,12.5605289936,unrot,0,0.758661985397,[],[],images/8.png,1,8,JCH,False,False,0,False,8,3
8,False,1.5,structure_learning,14.0657291412,-1,90,-1.0,[],[],images/7.png,3,9,JCH,True,False,0,False,9,2
9,True,1.5,structure_learning,15.5711200237,unrot,0,0.664743900299,[],[],images/8.png,1,10,JCH,False,False,0,False,10,2
10,False,1.5,structure_learning,17.0774650574,-1,0,-1.0,[],[],images/9.png,0,11,JCH,True,True,0,False,11,10
11,True,1.5,structure_learning,18.5827269554,unrot,0,0.500868082047,[],[],images/8.png,1,12,JCH,False,True,0,False,12,2
12,False,1.5,structure_learning,20.0879449844,-1,0,-1.0,[],[],images/7.png,3,13,JCH,True,True,0,False,13,4
13,True,1.5,structure_learning,21.5932879448,unrot,0,0.509308099747,[],[],images/11.png,4,14,JCH,False,True,0,False,14,11
14,False,1.5,structure_learning,23.0985059738,-1,0,-1.0,[],[],images/5.png,5,15,JCH,True,True,1,True,1,0
15,False,1.5,structure_learning,24.6048901081,-1,0,-1.0,[],[],images/11.png,4,16,JCH,False,True,0,True,1,2
16,True,1.5,structure_learning,26.1099510193,unrot,0,0.576215982437,[],[],images/3.png,2,17,JCH,False,True,0,False,2,11
17,False,1.5,structure_learning,27.6153321266,-1,0,-1.0,[],[],images/7.png,3,18,JCH,True,True,0,False,3,5
18,True,1.5,structure_learning,29.1214470863,unrot,0,0.29091501236,[],[],images/8.png,1,19,JCH,False,True,0,False,4,7
19,False,1.5,structure_learning,30.6276481152,-1,0,-1.0,[],[],images/11.png,4,20,JCH,True,True,0,False,5,4
20,True,1.5,structure_learning,32.1344020367,unrot,0,0.266645908356,[],[],images/3.png,2,21,JCH,False,True,0,False,6,4
21,False,1.5,structure_learning,33.6412379742,-1,0,-1.0,[],[],images/8.png,1,22,JCH,True,True,0,False,7,3
22,True,1.5,structure_learning,35.1464440823,unrot,0,0.292820930481,[],[],images/3.png,2,23,JCH,False,True,0,False,8,2
23,True,1.5,structure_learning,36.6518149376,unrot,0,1.31638097763,[],[],images/8.png,1,24,JCH,True,True,0,False,9,2
24,False,1.5,structure_learning,38.1569471359,unrot,90,1.25213098526,[],[],images/11.png,4,25,JCH,True,False,0,False,10,5
25,False,1.5,structure_learning,39.6621670723,-1,0,-1.0,[],[],images/7.png,3,26,JCH,False,False,0,False,11,8
26,True,1.5,structure_learning,41.1675081253,unrot,0,0.881847143173,[],[],images/3.png,2,27,JCH,False,True,0,False,12,4
27,False,1.5,structure_learning,42.6729121208,-1,0,-1.0,[],[],images/11.png,4,28,JCH,True,True,0,False,13,3
28,False,1.5,structure_learning,44.178139925,unrot,90,0.424355983734,[],[],images/3.png,2,29,JCH,False,False,0,False,14,2
29,False,1.5,structure_learning,45.6836481094,-1,0,-1.0,[],[],images/7.png,3,30,JCH,False,False,0,False,15,4
30,False,1.5,structure_learning,47.1903309822,-1,0,-1.0,[],[],images/3.png,2,31,JCH,False,True,0,False,16,2
31,False,1.5,structure_learning,48.6957421303,-1,0,-1.0,[],[],images/11.png,4,32,JCH,False,True,0,False,17,4
32,False,1.5,structure_learning,50.2011399269,-1,0,-1.0,[],[],images/8.png,1,33,JCH,False,True,0,False,18,9
33,False,1.5,structure_learning,51.706346035,-1,0,-1.0,[],[],images/11.png,4,34,JCH,False,True,0,False,19,2
34,True,1.5,structure_learning,53.2117469311,unrot,0,1.09868216515,[],[],images/5.png,5,35,JCH,False,True,1,True,1,20
35,False,1.5,structure_learning,54.7182540894,-1,0,-1.0,[],[],images/2.png,6,36,JCH,True,True,1,False,2,0
36,False,1.5,structure_learning,56.2236509323,-1,0,-1.0,[],[],images/10.png,8,37,JCH,False,True,1,False,3,0
37,False,1.5,structure_learning,57.7324221134,-1,0,-1.0,[],[],images/1.png,9,38,JCH,False,True,1,False,4,0
38,True,1.5,structure_learning,59.2391660213,unrot,0,1.03645014763,[],[],images/2.png,6,39,JCH,False,True,1,False,5,3
39,False,1.5,structure_learning,60.7446050644,-1,0,-1.0,[],[],images/10.png,8,40,JCH,True,True,1,False,6,3
40,False,1.5,structure_learning,62.2532110214,-1,0,-1.0,[],[],images/4.png,7,41,JCH,False,True,1,False,7,0
41,False,1.5,structure_learning,63.7585849762,-1,0,-1.0,[],[],images/1.png,9,42,JCH,False,True,1,False,8,4
42,False,1.5,structure_learning,65.2640531063,-1,0,-1.0,[],[],images/2.png,6,43,JCH,False,True,1,False,9,4
43,False,1.5,structure_learning,66.7694399357,-1,0,-1.0,[],[],images/5.png,5,44,JCH,False,True,1,False,10,9
44,False,1.5,structure_learning,68.2748060226,-1,0,-1.0,[],[],images/2.png,6,45,JCH,False,True,1,False,11,2
45,False,1.5,structure_learning,69.7801570892,-1,0,-1.0,[],[],images/4.png,7,46,JCH,False,True,1,False,12,5
46,False,1.5,structure_learning,71.2854819298,-1,0,-1.0,[],[],images/10.png,8,47,JCH,False,True,1,False,13,7
47,False,1.5,structure_learning,72.7939360142,-1,0,-1.0,[],[],images/6.png,10,48,JCH,False,True,2,True,1,0
48,False,1.5,structure_learning,74.299519062,-1,0,-1.0,[],[],images/1.png,9,49,JCH,False,True,1,True,1,7
49,True,1.5,structure_learning,75.8048250675,unrot,0,0.539970874786,[],[],images/10.png,8,50,JCH,False,True,1,False,2,3
50,False,1.5,structure_learning,77.313336134,-1,90,-1.0,[],[],images/4.png,7,51,JCH,True,False,1,False,3,5
51,False,1.5,structure_learning,78.8187329769,-1,0,-1.0,[],[],images/1.png,9,52,JCH,False,False,1,False,4,3
52,False,1.5,structure_learning,80.3240590096,-1,90,-1.0,[],[],images/6.png,10,53,JCH,False,False,2,True,1,5
53,True,1.5,structure_learning,81.8295271397,unrot,0,0.226667165756,[],[],images/10.png,8,54,JCH,False,False,1,True,1,4
54,False,1.5,structure_learning,83.3382310867,-1,0,-1.0,[],[],images/1.png,9,55,JCH,True,True,1,False,2,3
55,False,1.5,structure_learning,84.8435730934,-1,90,-1.0,[],[],images/4.png,7,56,JCH,False,False,1,False,3,5
56,False,1.5,structure_learning,86.3489699364,unrot,90,1.30339789391,[],[],images/6.png,10,57,JCH,False,True,2,True,1,4
57,False,1.5,structure_learning,87.8543710709,-1,0,-1.0,[],[],images/1.png,9,58,JCH,False,False,1,True,1,3
58,False,1.5,structure_learning,89.3597609997,-1,0,-1.0,[],[],images/10.png,8,59,JCH,False,True,1,False,2,5
59,False,1.5,structure_learning,90.8682379723,-1,0,-1.0,[],[],images/6.png,10,60,JCH,False,True,2,True,1,3
60,False,1.5,structure_learning,92.3738861084,-1,0,-1.0,[],[],images/10.png,8,61,JCH,False,True,1,True,1,2
61,False,1.5,structure_learning,93.8822650909,-1,0,-1.0,[],[],images/2.png,6,62,JCH,False,True,1,False,2,17
62,True,1.5,structure_learning,95.3877699375,unrot,0,1.17113995552,[],[],images/5.png,5,63,JCH,False,True,1,False,3,19
63,False,1.5,structure_learning,96.8929219246,-1,0,-1.0,[],[],images/2.png,6,64,JCH,True,True,1,False,4,2
64,False,1.5,structure_learning,98.3982601166,-1,90,-1.0,[],[],images/10.png,8,65,JCH,False,False,1,False,5,4
65,True,1.5,structure_learning,99.906580925,unrot,0,0.475670099258,[],[],images/6.png,10,66,JCH,False,False,2,True,1,6
66,True,1.5,structure_learning,101.411814928,unrot,0,1.45332717896,[],[],images/9.png,0,67,JCH,True,True,0,True,1,56
67,False,1.5,structure_learning,102.916705132,-1,0,-1.0,[],[],images/6.png,10,68,JCH,True,True,2,True,1,2
68,True,1.5,structure_learning,104.421947956,unrot,0,1.16958808899,[],[],images/9.png,0,69,JCH,False,True,0,True,1,2
69,False,1.5,structure_learning,105.927067041,-1,90,-1.0,[],[],images/6.png,10,70,JCH,True,False,2,True,1,2
70,False,1.5,structure_learning,107.432641029,unrot,90,1.14148592949,[],[],images/1.png,9,71,JCH,False,True,1,True,1,13
71,False,1.5,structure_learning,108.938132048,-1,90,-1.0,[],[],images/2.png,6,72,JCH,False,True,1,False,2,8
72,False,1.5,structure_learning,110.443578959,-1,0,-1.0,[],[],images/4.png,7,73,JCH,False,False,1,False,3,17
73,False,1.5,structure_learning,111.94870615,-1,0,-1.0,[],[],images/1.png,9,74,JCH,False,True,1,False,4,3
74,False,1.5,structure_learning,113.453933954,-1,0,-1.0,[],[],images/4.png,7,75,JCH,False,True,1,False,5,2
75,False,1.5,structure_learning,114.95906806,-1,90,-1.0,[],[],images/6.png,10,76,JCH,False,False,2,True,1,6
76,False,1.5,structure_learning,116.464234114,-1,90,-1.0,[],[],images/9.png,0,77,JCH,False,True,0,True,1,8
77,False,1.5,structure_learning,117.96936512,-1,0,-1.0,[],[],images/7.png,3,78,JCH,False,False,0,False,2,48
78,False,1.5,structure_learning,119.474462032,-1,90,-1.0,[],[],images/3.png,2,79,JCH,False,False,0,False,3,48
79,False,1.5,structure_learning,120.979704142,-1,90,-1.0,[],[],images/11.png,4,80,JCH,False,True,0,False,4,46
80,False,1.5,structure_learning,122.486146927,-1,0,-1.0,[],[],images/8.png,1,81,JCH,False,False,0,False,5,48
81,False,1.5,structure_learning,123.991508007,-1,0,-1.0,[],[],images/3.png,2,82,JCH,False,True,0,False,6,3
82,False,1.5,structure_learning,125.498341084,-1,0,-1.0,[],[],images/11.png,4,83,JCH,False,True,0,False,7,3
83,False,1.5,structure_learning,127.003593922,-1,0,-1.0,[],[],images/3.png,2,84,JCH,False,True,0,False,8,2
84,False,1.5,structure_learning,128.509063959,-1,90,-1.0,[],[],images/7.png,3,85,JCH,False,False,0,False,9,7
85,False,1.5,structure_learning,130.014326096,-1,0,-1.0,[],[],images/8.png,1,86,JCH,False,False,0,False,10,5
86,False,1.5,structure_learning,131.519546032,-1,0,-1.0,[],[],images/9.png,0,87,JCH,False,True,0,False,11,10
87,False,1.5,structure_learning,133.024873972,-1,0,-1.0,[],[],images/8.png,1,88,JCH,False,True,0,False,12,2
88,False,1.5,structure_learning,134.529932976,-1,90,-1.0,[],[],images/3.png,2,89,JCH,False,False,0,False,13,5
89,False,1.5,structure_learning,136.035536051,-1,90,-1.0,[],[],images/11.png,4,90,JCH,False,True,0,False,14,7
90,False,1.5,structure_learning,137.540779114,-1,0,-1.0,[],[],images/7.png,3,91,JCH,False,False,0,False,15,6
91,False,1.5,structure_learning,139.046175003,-1,0,-1.0,[],[],images/9.png,0,92,JCH,False,True,0,False,16,5
92,False,1.5,structure_learning,140.55199194,-1,0,-1.0,[],[],images/6.png,10,93,JCH,False,True,2,True,1,17
93,False,1.5,structure_learning,142.057408094,-1,0,-1.0,[],[],images/1.png,9,94,JCH,False,True,1,True,1,20
94,False,1.5,structure_learning,143.562773943,-1,0,-1.0,[],[],images/2.png,6,95,JCH,False,True,1,False,2,23
95,False,1.5,structure_learning,145.069410086,-1,90,-1.0,[],[],images/10.png,8,96,JCH,False,False,1,False,3,31
96,False,1.5,structure_learning,146.577943087,-1,0,-1.0,[],[],images/6.png,10,97,JCH,False,False,2,True,1,4
97,False,1.5,structure_learning,148.083487988,-1,0,-1.0,[],[],images/9.png,0,98,JCH,False,True,0,True,1,6
98,False,1.5,structure_learning,149.588658094,-1,0,-1.0,[],[],images/3.png,2,99,JCH,False,True,0,False,2,10
99,False,1.5,structure_learning,151.09405303,-1,0,-1.0,[],[],images/9.png,0,100,JCH,False,True,0,False,3,2
100,False,1.5,structure_learning,152.599184036,-1,0,-1.0,[],[],images/6.png,10,101,JCH,False,True,2,True,1,4
101,False,1.5,structure_learning,154.104686022,-1,0,-1.0,[],[],images/1.png,9,102,JCH,False,True,1,True,1,8
102,False,1.5,structure_learning,155.610136986,-1,90,-1.0,[],[],images/6.png,10,103,JCH,False,False,2,True,1,2
103,True,1.5,structure_learning,157.115512133,unrot,0,0.501891136169,[],[],images/9.png,0,104,JCH,False,False,0,True,1,4
104,False,1.5,structure_learning,158.620680094,-1,0,-1.0,[],[],images/7.png,3,105,JCH,True,True,0,False,2,14
105,False,1.5,structure_learning,160.126085043,-1,0,-1.0,[],[],images/11.png,4,106,JCH,False,True,0,False,3,16
106,False,1.5,structure_learning,161.63132,-1,0,-1.0,[],[],images/5.png,5,107,JCH,False,True,1,True,1,44
107,False,1.5,structure_learning,163.136523962,-1,0,-1.0,[],[],images/2.png,6,108,JCH,False,True,1,False,2,13
108,False,1.5,structure_learning,164.64209199,-1,0,-1.0,[],[],images/5.png,5,109,JCH,False,True,1,False,3,2
109,False,1.5,structure_learning,166.147258043,-1,0,-1.0,[],[],images/11.png,4,110,JCH,False,True,0,True,1,4
110,False,1.5,structure_learning,167.653869152,-1,0,-1.0,[],[],images/8.png,1,111,JCH,False,True,0,False,2,23
111,False,1.5,structure_learning,169.158895969,-1,0,-1.0,[],[],images/9.png,0,112,JCH,False,True,0,False,3,8
112,False,1.5,structure_learning,170.663980961,-1,0,-1.0,[],[],images/8.png,1,113,JCH,False,True,0,False,4,2
113,False,1.5,structure_learning,172.169147015,-1,0,-1.0,[],[],images/9.png,0,114,JCH,False,True,0,False,5,2
114,False,1.5,structure_learning,173.674258947,-1,0,-1.0,[],[],images/8.png,1,115,JCH,False,True,0,False,6,2
115,False,1.5,structure_learning,175.179350138,-1,0,-1.0,[],[],images/7.png,3,116,JCH,False,True,0,False,7,11
116,False,1.5,structure_learning,176.684410095,-1,90,-1.0,[],[],images/3.png,2,117,JCH,False,False,0,False,8,18
117,False,1.5,structure_learning,178.190140963,-1,0,-1.0,[],[],images/9.png,0,118,JCH,False,False,0,False,9,4
118,False,1.5,structure_learning,179.695086002,-1,0,-1.0,[],[],images/6.png,10,119,JCH,False,True,2,True,1,16
119,False,1.5,structure_learning,181.200350046,-1,0,-1.0,[],[],images/2.png,6,120,JCH,False,True,1,True,1,12
120,False,1.5,structure_learning,182.705703974,-1,0,-1.0,[],[],images/4.png,7,121,JCH,False,True,1,False,2,46
121,False,1.5,structure_learning,184.210987091,-1,0,-1.0,[],[],images/6.png,10,122,JCH,False,True,2,True,1,3
122,False,1.5,structure_learning,185.716417074,-1,0,-1.0,[],[],images/2.png,6,123,JCH,False,True,1,True,1,3
123,False,1.5,structure_learning,187.223349094,-1,0,-1.0,[],[],images/5.png,5,124,JCH,False,True,1,False,2,15
124,False,1.5,structure_learning,188.728415012,-1,90,-1.0,[],[],images/11.png,4,125,JCH,False,False,0,True,1,15
125,False,1.5,structure_learning,190.233626127,-1,0,-1.0,[],[],images/5.png,5,126,JCH,False,False,1,True,1,2
126,False,1.5,structure_learning,191.738662004,-1,0,-1.0,[],[],images/2.png,6,127,JCH,False,True,1,False,2,4
127,False,1.5,structure_learning,193.244008064,-1,0,-1.0,[],[],images/4.png,7,128,JCH,False,True,1,False,3,7
128,False,1.5,structure_learning,194.749379158,-1,90,-1.0,[],[],images/6.png,10,129,JCH,False,False,2,True,1,7
129,False,1.5,structure_learning,196.25615406,-1,0,-1.0,[],[],images/2.png,6,130,JCH,False,False,1,True,1,3
130,False,1.5,structure_learning,197.761615992,-1,0,-1.0,[],[],images/1.png,9,131,JCH,False,True,1,False,2,29
131,False,1.5,structure_learning,199.266868114,-1,0,-1.0,[],[],images/10.png,8,132,JCH,False,True,1,False,3,36
132,False,1.5,structure_learning,200.77542901,-1,0,-1.0,[],[],images/1.png,9,133,JCH,False,True,1,False,4,2
133,False,1.5,structure_learning,202.280900955,-1,0,-1.0,[],[],images/2.png,6,134,JCH,False,True,1,False,5,4
134,False,1.5,structure_learning,203.787539959,-1,0,-1.0,[],[],images/4.png,7,135,JCH,False,True,1,False,6,7
135,False,1.5,structure_learning,205.292886972,-1,0,-1.0,[],[],images/2.png,6,136,JCH,False,True,1,False,7,2
136,False,1.5,structure_learning,206.798321962,-1,0,-1.0,[],[],images/4.png,7,137,JCH,False,True,1,False,8,2
137,False,1.5,structure_learning,208.303645134,-1,0,-1.0,[],[],images/6.png,10,138,JCH,False,True,2,True,1,9
138,False,1.5,structure_learning,209.810362101,-1,90,-1.0,[],[],images/1.png,9,139,JCH,False,False,1,True,1,6
139,False,1.5,structure_learning,211.315626144,-1,0,-1.0,[],[],images/4.png,7,140,JCH,False,False,1,False,2,3
140,False,1.5,structure_learning,212.821136951,-1,0,-1.0,[],[],images/2.png,6,141,JCH,False,True,1,False,3,5
141,False,1.5,structure_learning,214.326561928,-1,0,-1.0,[],[],images/10.png,8,142,JCH,False,True,1,False,4,10
142,False,1.5,structure_learning,215.837414026,-1,0,-1.0,[],[],images/4.png,7,143,JCH,False,True,1,False,5,3
143,False,1.5,structure_learning,217.342849016,-1,0,-1.0,[],[],images/10.png,8,144,JCH,False,True,1,False,6,2
144,False,1.5,structure_learning,218.851455927,-1,0,-1.0,[],[],images/2.png,6,145,JCH,False,True,1,False,7,4
145,False,1.5,structure_learning,220.356931925,-1,0,-1.0,[],[],images/10.png,8,146,JCH,False,True,1,False,8,2
146,False,1.5,structure_learning,221.865419149,-1,0,-1.0,[],[],images/4.png,7,147,JCH,False,True,1,False,9,4
147,False,1.5,structure_learning,223.370897055,-1,0,-1.0,[],[],images/10.png,8,148,JCH,False,True,1,False,10,2
148,False,1.5,structure_learning,224.879433155,-1,90,-1.0,[],[],images/6.png,10,149,JCH,False,False,2,True,1,11
149,False,1.5,structure_learning,226.384945154,-1,0,-1.0,[],[],images/10.png,8,150,JCH,False,False,1,True,1,2
150,False,1.5,structure_learning,227.895632982,-1,0,-1.0,[],[],images/1.png,9,151,JCH,False,True,1,False,2,12
151,False,1.5,structure_learning,229.402262926,-1,0,-1.0,[],[],images/4.png,7,152,JCH,False,True,1,False,3,5
152,False,1.5,structure_learning,230.907568932,-1,0,-1.0,[],[],images/10.png,8,153,JCH,False,True,1,False,4,3
153,False,1.5,structure_learning,232.416152,-1,0,-1.0,[],[],images/1.png,9,154,JCH,False,True,1,False,5,3
154,False,1.5,structure_learning,233.921515942,-1,0,-1.0,[],[],images/10.png,8,155,JCH,False,True,1,False,6,2
155,False,1.5,structure_learning,235.429888964,-1,0,-1.0,[],[],images/1.png,9,156,JCH,False,True,1,False,7,2
156,False,1.5,structure_learning,236.935564041,-1,90,-1.0,[],[],images/2.png,6,157,JCH,False,False,1,False,8,12
157,False,1.5,structure_learning,238.440801144,-1,0,-1.0,[],[],images/5.png,5,158,JCH,False,False,1,False,9,32
158,False,1.5,structure_learning,239.946249008,-1,90,-1.0,[],[],images/11.png,4,159,JCH,False,False,0,True,1,34
159,False,1.5,structure_learning,241.451730967,-1,90,-1.0,[],[],images/3.png,2,160,JCH,False,True,0,False,2,43
160,False,1.5,structure_learning,242.958086967,-1,0,-1.0,[],[],images/7.png,3,161,JCH,False,False,0,False,3,45
161,False,1.5,structure_learning,244.463371992,-1,0,-1.0,[],[],images/11.png,4,162,JCH,False,True,0,False,4,3
162,False,1.5,structure_learning,245.968688965,-1,0,-1.0,[],[],images/3.png,2,163,JCH,False,True,0,False,5,3
163,False,1.5,structure_learning,247.474272966,-1,0,-1.0,[],[],images/9.png,0,164,JCH,False,True,0,False,6,46
164,False,1.5,structure_learning,248.979507923,-1,0,-1.0,[],[],images/6.png,10,165,JCH,False,True,2,True,1,16
165,False,1.5,structure_learning,250.484818935,-1,0,-1.0,[],[],images/1.png,9,166,JCH,False,True,1,True,1,10
166,False,1.5,structure_learning,251.990062952,-1,0,-1.0,[],[],images/10.png,8,167,JCH,False,True,1,False,2,12
167,False,1.5,structure_learning,253.498368025,-1,0,-1.0,[],[],images/6.png,10,168,JCH,False,True,2,True,1,3
168,False,1.5,structure_learning,255.003818989,-1,90,-1.0,[],[],images/10.png,8,169,JCH,False,False,1,True,1,2
169,False,1.5,structure_learning,256.512139082,-1,90,-1.0,[],[],images/2.png,6,170,JCH,False,True,1,False,2,13
170,False,1.5,structure_learning,258.017622948,-1,0,-1.0,[],[],images/1.png,9,171,JCH,False,False,1,False,3,5
171,False,1.5,structure_learning,259.522906065,-1,0,-1.0,[],[],images/2.png,6,172,JCH,False,True,1,False,4,2
172,False,1.5,structure_learning,261.028139114,-1,0,-1.0,[],[],images/4.png,7,173,JCH,False,True,1,False,5,21
173,False,1.5,structure_learning,262.53344202,-1,0,-1.0,[],[],images/2.png,6,174,JCH,False,True,1,False,6,2
174,False,1.5,structure_learning,264.038766146,-1,90,-1.0,[],[],images/1.png,9,175,JCH,False,False,1,False,7,4
175,False,1.5,structure_learning,265.544060946,-1,0,-1.0,[],[],images/4.png,7,176,JCH,False,False,1,False,8,3
176,False,1.5,structure_learning,267.049615145,-1,0,-1.0,[],[],images/10.png,8,177,JCH,False,True,1,False,9,8
177,False,1.5,structure_learning,268.558807135,-1,90,-1.0,[],[],images/1.png,9,178,JCH,False,False,1,False,10,3
178,False,1.5,structure_learning,270.064188957,-1,0,-1.0,[],[],images/2.png,6,179,JCH,False,False,1,False,11,5
179,False,1.5,structure_learning,271.569421053,-1,90,-1.0,[],[],images/5.png,5,180,JCH,False,False,1,False,12,22
180,False,1.5,structure_learning,273.074651003,-1,0,-1.0,[],[],images/2.png,6,181,JCH,False,False,1,False,13,2
181,False,1.5,structure_learning,274.581181049,-1,0,-1.0,[],[],images/10.png,8,182,JCH,False,True,1,False,14,5
182,False,1.5,structure_learning,276.090006113,-1,0,-1.0,[],[],images/6.png,10,183,JCH,False,True,2,True,1,15
183,False,1.5,structure_learning,277.595440149,-1,90,-1.0,[],[],images/1.png,9,184,JCH,False,False,1,True,1,6
184,False,1.5,structure_learning,279.100785017,-1,0,-1.0,[],[],images/2.png,6,185,JCH,False,False,1,False,2,4
185,False,1.5,structure_learning,280.606301069,-1,0,-1.0,[],[],images/1.png,9,186,JCH,False,True,1,False,3,2
186,False,1.5,structure_learning,282.111681938,-1,0,-1.0,[],[],images/4.png,7,187,JCH,False,True,1,False,4,11
187,False,1.5,structure_learning,283.617015123,-1,0,-1.0,[],[],images/10.png,8,188,JCH,False,True,1,False,5,6
188,False,1.5,structure_learning,285.125651121,-1,90,-1.0,[],[],images/1.png,9,189,JCH,False,False,1,False,6,3
189,False,1.5,structure_learning,286.632341146,-1,0,-1.0,[],[],images/4.png,7,190,JCH,False,False,1,False,7,3
190,False,1.5,structure_learning,288.137635946,-1,90,-1.0,[],[],images/6.png,10,191,JCH,False,False,2,True,1,8
191,False,1.5,structure_learning,289.643166065,-1,0,-1.0,[],[],images/9.png,0,192,JCH,False,False,0,True,1,28
192,False,1.5,structure_learning,291.148514032,-1,0,-1.0,[],[],images/3.png,2,193,JCH,False,True,0,False,2,30
193,False,1.5,structure_learning,292.655148983,-1,90,-1.0,[],[],images/8.png,1,194,JCH,False,False,0,False,3,79
194,False,1.5,structure_learning,294.16031003,-1,0,-1.0,[],[],images/11.png,4,195,JCH,False,False,0,False,4,33
195,False,1.5,structure_learning,295.665518999,-1,0,-1.0,[],[],images/7.png,3,196,JCH,False,True,0,False,5,35
196,False,1.5,structure_learning,297.171015978,-1,0,-1.0,[],[],images/3.png,2,197,JCH,False,True,0,False,6,4
197,False,1.5,structure_learning,298.677649021,-1,0,-1.0,[],[],images/7.png,3,198,JCH,False,True,0,False,7,2
198,False,1.5,structure_learning,300.183054924,-1,90,-1.0,[],[],images/8.png,1,199,JCH,False,False,0,False,8,5
199,False,1.5,structure_learning,301.688245058,-1,0,-1.0,[],[],images/7.png,3,200,JCH,False,False,0,False,9,2
200,False,1.5,structure_learning,303.193576097,-1,0,-1.0,[],[],images/11.png,4,201,JCH,False,True,0,False,10,6
201,False,1.5,structure_learning,304.698666096,-1,0,-1.0,[],[],images/8.png,1,202,JCH,False,True,0,False,11,3
202,False,1.5,structure_learning,306.203907013,-1,90,-1.0,[],[],images/11.png,4,203,JCH,False,False,0,False,12,2
203,False,1.5,structure_learning,307.709216118,-1,0,-1.0,[],[],images/8.png,1,204,JCH,False,False,0,False,13,2
204,False,1.5,structure_learning,309.214457035,-1,90,-1.0,[],[],images/7.png,3,205,JCH,False,False,0,False,14,5
205,False,1.5,structure_learning,310.719551086,-1,0,-1.0,[],[],images/11.png,4,206,JCH,False,False,0,False,15,3
206,False,1.5,structure_learning,312.224743128,-1,0,-1.0,[],[],images/8.png,1,207,JCH,False,True,0,False,16,3
207,False,1.5,structure_learning,313.730988979,-1,0,-1.0,[],[],images/3.png,2,208,JCH,False,True,0,False,17,11
208,False,1.5,structure_learning,315.236619949,-1,0,-1.0,[],[],images/11.png,4,209,JCH,False,True,0,False,18,3
209,False,1.5,structure_learning,316.743121147,-1,0,-1.0,[],[],images/7.png,3,210,JCH,False,True,0,False,19,5
210,False,1.5,structure_learning,318.248664141,-1,0,-1.0,[],[],images/3.png,2,211,JCH,False,True,0,False,20,3
211,False,1.5,structure_learning,319.753920078,-1,0,-1.0,[],[],images/7.png,3,212,JCH,False,True,0,False,21,2
212,False,1.5,structure_learning,321.259154081,-1,90,-1.0,[],[],images/3.png,2,213,JCH,False,False,0,False,22,2
213,False,1.5,structure_learning,322.764689922,-1,0,-1.0,[],[],images/9.png,0,214,JCH,False,False,0,False,23,22
214,False,1.5,structure_learning,324.269972086,-1,90,-1.0,[],[],images/7.png,3,215,JCH,False,False,0,False,24,3
215,False,1.5,structure_learning,325.775167942,-1,0,-1.0,[],[],images/8.png,1,216,JCH,False,False,0,False,25,9
216,False,1.5,structure_learning,327.280535936,-1,90,-1.0,[],[],images/11.png,4,217,JCH,False,False,0,False,26,8
217,False,1.5,structure_learning,328.787173033,-1,0,-1.0,[],[],images/5.png,5,218,JCH,False,False,1,True,1,38
218,False,1.5,structure_learning,330.293486118,-1,0,-1.0,[],[],images/2.png,6,219,JCH,False,True,1,False,2,34
219,False,1.5,structure_learning,331.798807144,-1,0,-1.0,[],[],images/4.png,7,220,JCH,False,True,1,False,3,30
220,False,1.5,structure_learning,333.30389595,-1,0,-1.0,[],[],images/1.png,9,221,JCH,False,True,1,False,4,32
221,False,1.5,structure_learning,334.808997154,-1,90,-1.0,[],[],images/10.png,8,222,JCH,False,False,1,False,5,34
222,False,1.5,structure_learning,336.319437027,-1,0,-1.0,[],[],images/2.png,6,223,JCH,False,False,1,False,6,4
223,False,1.5,structure_learning,337.824733973,-1,0,-1.0,[],[],images/5.png,5,224,JCH,False,True,1,False,7,6
224,False,1.5,structure_learning,339.330013037,-1,0,-1.0,[],[],images/11.png,4,225,JCH,False,True,0,True,1,8
225,False,1.5,structure_learning,340.835154057,-1,0,-1.0,[],[],images/3.png,2,226,JCH,False,True,0,False,2,13
226,False,1.5,structure_learning,342.340323925,-1,0,-1.0,[],[],images/11.png,4,227,JCH,False,True,0,False,3,2
227,False,1.5,structure_learning,343.845422029,-1,0,-1.0,[],[],images/7.png,3,228,JCH,False,True,0,False,4,13
228,False,1.5,structure_learning,345.350661039,-1,0,-1.0,[],[],images/3.png,2,229,JCH,False,True,0,False,5,3
229,False,1.5,structure_learning,346.85592103,-1,0,-1.0,[],[],images/8.png,1,230,JCH,False,True,0,False,6,14
230,False,1.5,structure_learning,348.360863924,-1,0,-1.0,[],[],images/9.png,0,231,JCH,False,True,0,False,7,17
231,False,1.5,structure_learning,349.866104126,-1,0,-1.0,[],[],images/8.png,1,232,JCH,False,True,0,False,8,2
232,False,1.5,structure_learning,351.371189117,-1,0,-1.0,[],[],images/3.png,2,233,JCH,False,True,0,False,9,4
233,False,1.5,structure_learning,352.876430988,-1,90,-1.0,[],[],images/9.png,0,234,JCH,False,False,0,False,10,3
234,False,1.5,structure_learning,354.381572962,-1,0,-1.0,[],[],images/7.png,3,235,JCH,False,False,0,False,11,7
235,False,1.5,structure_learning,355.886992931,-1,0,-1.0,[],[],images/8.png,1,236,JCH,False,True,0,False,12,4
236,False,1.5,structure_learning,357.39211607,-1,0,-1.0,[],[],images/3.png,2,237,JCH,False,True,0,False,13,4
237,False,1.5,structure_learning,358.897745132,-1,0,-1.0,[],[],images/7.png,3,238,JCH,False,True,0,False,14,3
238,False,1.5,structure_learning,360.403036118,-1,0,-1.0,[],[],images/9.png,0,239,JCH,False,True,0,False,15,5
239,False,1.5,structure_learning,361.90835309,-1,90,-1.0,[],[],images/8.png,1,240,JCH,False,False,0,False,16,4
240,False,1.5,structure_learning,363.413666964,-1,0,-1.0,[],[],images/3.png,2,241,JCH,False,False,0,False,17,4
241,False,1.5,structure_learning,364.919007063,-1,90,-1.0,[],[],images/11.png,4,242,JCH,False,False,0,False,18,15
242,False,1.5,structure_learning,366.424226046,-1,90,-1.0,[],[],images/5.png,5,243,JCH,False,True,1,True,1,19
243,False,1.5,structure_learning,367.929619074,-1,0,-1.0,[],[],images/2.png,6,244,JCH,False,False,1,False,2,21
244,False,1.5,structure_learning,369.435389042,-1,90,-1.0,[],[],images/5.png,5,245,JCH,False,False,1,False,3,2
245,False,1.5,structure_learning,370.941730976,-1,90,-1.0,[],[],images/11.png,4,246,JCH,False,True,0,True,1,4
246,False,1.5,structure_learning,372.446982145,-1,0,-1.0,[],[],images/5.png,5,247,JCH,False,False,1,True,1,2
247,False,1.5,structure_learning,373.952126026,-1,0,-1.0,[],[],images/11.png,4,248,JCH,False,True,0,True,1,2
248,False,1.5,structure_learning,375.458395958,-1,0,-1.0,[],[],images/7.png,3,249,JCH,False,True,0,False,2,11
249,False,1.5,structure_learning,376.963566065,-1,0,-1.0,[],[],images/3.png,2,250,JCH,False,True,0,False,3,9
250,False,1.5,structure_learning,378.468869925,-1,0,-1.0,[],[],images/9.png,0,251,JCH,False,True,0,False,4,12
251,False,1.5,structure_learning,379.974447012,-1,0,-1.0,[],[],images/3.png,2,252,JCH,False,True,0,False,5,2
252,False,1.5,structure_learning,381.479936123,-1,0,-1.0,[],[],images/9.png,0,253,JCH,False,True,0,False,6,2
253,False,1.5,structure_learning,382.985124111,-1,0,-1.0,[],[],images/3.png,2,254,JCH,False,True,0,False,7,2
254,False,1.5,structure_learning,384.490607023,-1,0,-1.0,[],[],images/7.png,3,255,JCH,False,True,0,False,8,6
255,False,1.5,structure_learning,385.996088982,-1,90,-1.0,[],[],images/9.png,0,256,JCH,False,False,0,False,9,3
256,False,1.5,structure_learning,387.501292944,-1,0,-1.0,[],[],images/6.png,10,257,JCH,False,False,2,True,1,66
257,False,1.5,structure_learning,389.006726027,-1,0,-1.0,[],[],images/9.png,0,258,JCH,False,True,0,True,1,2
258,False,1.5,structure_learning,390.512020111,-1,0,-1.0,[],[],images/3.png,2,259,JCH,False,True,0,False,2,5
259,False,1.5,structure_learning,392.01752305,-1,90,-1.0,[],[],images/9.png,0,260,JCH,False,False,0,False,3,2
260,False,1.5,structure_learning,393.522719145,-1,0,-1.0,[],[],images/6.png,10,261,JCH,False,False,2,True,1,4
261,True,1.5,structure_learning,395.028170109,unrot,0,0.842139005661,[],[],images/1.png,9,262,JCH,False,True,1,True,1,41
262,True,1.5,structure_learning,396.533540964,unrot,0,0.701427936554,[],[],images/6.png,10,263,JCH,True,True,2,True,1,2
263,False,1.5,structure_learning,398.038990021,unrot,90,0.287557125092,[],[],images/10.png,8,264,JCH,True,False,1,True,1,42
264,False,1.5,structure_learning,399.547214985,-1,0,-1.0,[],[],images/6.png,10,265,JCH,False,False,2,True,1,2
265,False,1.5,structure_learning,401.052658081,-1,0,-1.0,[],[],images/2.png,6,266,JCH,False,True,1,True,1,22
266,False,1.5,structure_learning,402.557951927,-1,0,-1.0,[],[],images/1.png,9,267,JCH,False,True,1,False,2,5
267,False,1.5,structure_learning,404.063431978,-1,0,-1.0,[],[],images/6.png,10,268,JCH,False,True,2,True,1,3
268,False,1.5,structure_learning,405.568732023,-1,0,-1.0,[],[],images/1.png,9,269,JCH,False,True,1,True,1,2
269,False,1.5,structure_learning,407.074095011,-1,0,-1.0,[],[],images/10.png,8,270,JCH,False,True,1,False,2,6
270,False,1.5,structure_learning,408.582714081,-1,0,-1.0,[],[],images/1.png,9,271,JCH,False,True,1,False,3,2
271,False,1.5,structure_learning,410.088140965,-1,0,-1.0,[],[],images/6.png,10,272,JCH,False,True,2,True,1,4
272,False,1.5,structure_learning,411.593631983,-1,0,-1.0,[],[],images/1.png,9,273,JCH,False,True,1,True,1,2
273,False,1.5,structure_learning,413.099054098,-1,0,-1.0,[],[],images/6.png,10,274,JCH,False,True,2,True,1,2
274,False,1.5,structure_learning,414.604424,-1,0,-1.0,[],[],images/1.png,9,275,JCH,False,True,1,True,1,2
275,False,1.5,structure_learning,416.109935045,-1,90,-1.0,[],[],images/4.png,7,276,JCH,False,False,1,False,2,56
276,False,1.5,structure_learning,417.615405083,-1,0,-1.0,[],[],images/10.png,8,277,JCH,False,False,1,False,3,7
277,False,1.5,structure_learning,419.12391901,-1,0,-1.0,[],[],images/6.png,10,278,JCH,False,True,2,True,1,4
278,False,1.5,structure_learning,420.629271984,-1,0,-1.0,[],[],images/2.png,6,279,JCH,False,True,1,True,1,13
279,False,1.5,structure_learning,422.134639978,-1,0,-1.0,[],[],images/5.png,5,280,JCH,False,True,1,False,2,33
280,False,1.5,structure_learning,423.639670134,-1,0,-1.0,[],[],images/2.png,6,281,JCH,False,True,1,False,3,2
281,False,1.5,structure_learning,425.144922972,-1,0,-1.0,[],[],images/5.png,5,282,JCH,False,True,1,False,4,2
282,False,1.5,structure_learning,426.649953127,-1,0,-1.0,[],[],images/11.png,4,283,JCH,False,True,0,True,1,35
283,False,1.5,structure_learning,428.15489006,-1,0,-1.0,[],[],images/8.png,1,284,JCH,False,True,0,False,2,44
284,False,1.5,structure_learning,429.659752131,-1,0,-1.0,[],[],images/3.png,2,285,JCH,False,True,0,False,3,26
285,False,1.5,structure_learning,431.16505003,-1,0,-1.0,[],[],images/9.png,0,286,JCH,False,True,0,False,4,26
286,False,1.5,structure_learning,432.670231104,-1,0,-1.0,[],[],images/3.png,2,287,JCH,False,True,0,False,5,2
287,False,1.5,structure_learning,434.175465107,-1,0,-1.0,[],[],images/9.png,0,288,JCH,False,True,0,False,6,2
288,False,1.5,structure_learning,435.680501938,-1,0,-1.0,[],[],images/8.png,1,289,JCH,False,True,0,False,7,5
289,False,1.5,structure_learning,437.185560942,-1,0,-1.0,[],[],images/11.png,4,290,JCH,False,True,0,False,8,7
290,False,1.5,structure_learning,438.690607071,-1,0,-1.0,[],[],images/5.png,5,291,JCH,False,True,1,True,1,9
291,False,1.5,structure_learning,440.195646048,-1,0,-1.0,[],[],images/11.png,4,292,JCH,False,True,0,True,1,2
292,False,1.5,structure_learning,441.700895071,-1,0,-1.0,[],[],images/8.png,1,293,JCH,False,True,0,False,2,4
293,False,1.5,structure_learning,443.205963135,-1,90,-1.0,[],[],images/7.png,3,294,JCH,False,False,0,False,3,39
294,False,1.5,structure_learning,444.711205959,-1,0,-1.0,[],[],images/11.png,4,295,JCH,False,False,0,False,4,3
295,False,1.5,structure_learning,446.216195107,-1,0,-1.0,[],[],images/5.png,5,296,JCH,False,True,1,True,1,5
296,False,1.5,structure_learning,447.721677065,-1,90,-1.0,[],[],images/11.png,4,297,JCH,False,False,0,True,1,2
297,False,1.5,structure_learning,449.226839066,-1,0,-1.0,[],[],images/7.png,3,298,JCH,False,False,0,False,2,4
298,False,1.5,structure_learning,450.732208014,-1,0,-1.0,[],[],images/3.png,2,299,JCH,False,True,0,False,3,12
299,False,1.5,structure_learning,452.237676144,-1,0,-1.0,[],[],images/7.png,3,300,JCH,False,True,0,False,4,2
300,False,1.5,structure_learning,453.742875099,-1,0,-1.0,[],[],images/11.png,4,301,JCH,False,True,0,False,5,4
301,False,1.5,structure_learning,455.248039961,-1,0,-1.0,[],[],images/8.png,1,302,JCH,False,True,0,False,6,9
302,False,1.5,structure_learning,456.753088951,-1,0,-1.0,[],[],images/3.png,2,303,JCH,False,True,0,False,7,4
303,False,1.5,structure_learning,458.258540154,-1,0,-1.0,[],[],images/9.png,0,304,JCH,False,True,0,False,8,16
304,False,1.5,structure_learning,459.763678074,-1,0,-1.0,[],[],images/3.png,2,305,JCH,False,True,0,False,9,2
305,False,1.5,structure_learning,461.269199133,-1,0,-1.0,[],[],images/11.png,4,306,JCH,False,True,0,False,10,5
306,False,1.5,structure_learning,462.774580002,-1,0,-1.0,[],[],images/8.png,1,307,JCH,False,True,0,False,11,5
307,False,1.5,structure_learning,464.279721022,-1,0,-1.0,[],[],images/9.png,0,308,JCH,False,True,0,False,12,4
308,False,1.5,structure_learning,465.786329031,-1,0,-1.0,[],[],images/6.png,10,309,JCH,False,True,2,True,1,31
309,False,1.5,structure_learning,467.291873932,-1,0,-1.0,[],[],images/9.png,0,310,JCH,False,True,0,True,1,2
310,False,1.5,structure_learning,468.798313141,-1,0,-1.0,[],[],images/3.png,2,311,JCH,False,True,0,False,2,6
311,False,1.5,structure_learning,470.303995132,-1,0,-1.0,[],[],images/8.png,1,312,JCH,False,True,0,False,3,5
312,False,1.5,structure_learning,471.809224129,-1,0,-1.0,[],[],images/9.png,0,313,JCH,False,True,0,False,4,3
313,False,1.5,structure_learning,473.314487934,-1,0,-1.0,[],[],images/6.png,10,314,JCH,False,True,2,True,1,5
314,False,1.5,structure_learning,474.821110964,-1,0,-1.0,[],[],images/1.png,9,315,JCH,False,True,1,True,1,40
315,False,1.5,structure_learning,476.326470137,-1,0,-1.0,[],[],images/10.png,8,316,JCH,False,True,1,False,2,39
316,False,1.5,structure_learning,477.834950924,-1,0,-1.0,[],[],images/1.png,9,317,JCH,False,True,1,False,3,2
317,False,1.5,structure_learning,479.340300083,-1,0,-1.0,[],[],images/2.png,6,318,JCH,False,True,1,False,4,37
318,False,1.5,structure_learning,480.845726013,-1,0,-1.0,[],[],images/10.png,8,319,JCH,False,True,1,False,5,3
319,False,1.5,structure_learning,482.354136944,-1,0,-1.0,[],[],images/6.png,10,320,JCH,False,True,2,True,1,6
320,False,1.5,structure_learning,483.859560013,-1,0,-1.0,[],[],images/9.png,0,321,JCH,False,True,0,True,1,8
321,False,1.5,structure_learning,485.364899158,-1,0,-1.0,[],[],images/8.png,1,322,JCH,False,True,0,False,2,10
322,False,1.5,structure_learning,486.870100975,-1,0,-1.0,[],[],images/7.png,3,323,JCH,False,True,0,False,3,23
323,False,1.5,structure_learning,488.375466108,-1,0,-1.0,[],[],images/11.png,4,324,JCH,False,True,0,False,4,18
324,False,1.5,structure_learning,489.880838156,-1,0,-1.0,[],[],images/8.png,1,325,JCH,False,True,0,False,5,3
325,False,1.5,structure_learning,491.385983944,-1,0,-1.0,[],[],images/7.png,3,326,JCH,False,True,0,False,6,3
326,False,1.5,structure_learning,492.891179085,-1,0,-1.0,[],[],images/11.png,4,327,JCH,False,True,0,False,7,3
327,False,1.5,structure_learning,494.396366119,-1,0,-1.0,[],[],images/3.png,2,328,JCH,False,True,0,False,8,17
328,False,1.5,structure_learning,495.901531935,-1,90,-1.0,[],[],images/9.png,0,329,JCH,False,False,0,False,9,8
329,False,1.5,structure_learning,497.40644002,-1,90,-1.0,[],[],images/3.png,2,330,JCH,False,True,0,False,10,2
330,False,1.5,structure_learning,498.911606073,-1,0,-1.0,[],[],images/9.png,0,331,JCH,False,False,0,False,11,2
331,False,1.5,structure_learning,500.416527033,-1,90,-1.0,[],[],images/7.png,3,332,JCH,False,False,0,False,12,6
332,False,1.5,structure_learning,501.922152996,-1,90,-1.0,[],[],images/3.png,2,333,JCH,False,True,0,False,13,3
333,False,1.5,structure_learning,503.427565098,-1,0,-1.0,[],[],images/11.png,4,334,JCH,False,False,0,False,14,7
334,False,1.5,structure_learning,7.79628753662e-05,-1,0,-1.0,[],[],images/7.png,3,335,JCH,False,True,0,False,15,3
335,False,1.5,structure_learning,1.50792813301,-1,0,-1.0,[],[],images/9.png,0,336,JCH,False,True,0,False,16,5
336,False,1.5,structure_learning,3.01300215721,-1,0,-1.0,[],[],images/7.png,3,337,JCH,False,True,0,False,17,2
337,False,1.5,structure_learning,4.5183300972,-1,0,-1.0,[],[],images/3.png,2,338,JCH,False,True,0,False,18,5
338,False,1.5,structure_learning,6.02354502678,-1,0,-1.0,[],[],images/11.png,4,339,JCH,False,True,0,False,19,5
339,False,1.5,structure_learning,7.52919816971,-1,0,-1.0,[],[],images/7.png,3,340,JCH,False,True,0,False,20,3
340,False,1.5,structure_learning,9.03444719315,-1,0,-1.0,[],[],images/9.png,0,341,JCH,False,True,0,False,21,5
341,False,1.5,structure_learning,10.539921999,-1,0,-1.0,[],[],images/6.png,10,342,JCH,False,True,2,True,1,22
342,False,1.5,structure_learning,12.046432972,-1,0,-1.0,[],[],images/10.png,8,343,JCH,False,True,1,True,1,24
343,False,1.5,structure_learning,13.5550291538,-1,0,-1.0,[],[],images/2.png,6,344,JCH,False,True,1,False,2,26
344,False,1.5,structure_learning,15.0603840351,-1,90,-1.0,[],[],images/4.png,7,345,JCH,False,False,1,False,3,69
345,False,1.5,structure_learning,16.565734148,-1,90,-1.0,[],[],images/6.png,10,346,JCH,False,True,2,True,1,4
346,False,1.5,structure_learning,18.0710220337,-1,0,-1.0,[],[],images/9.png,0,347,JCH,False,False,0,True,1,6
347,False,1.5,structure_learning,19.5763320923,-1,0,-1.0,[],[],images/8.png,1,348,JCH,False,True,0,False,2,23
348,False,1.5,structure_learning,21.0813810825,-1,0,-1.0,[],[],images/11.png,4,349,JCH,False,True,0,False,3,10
349,False,1.5,structure_learning,22.5864961147,-1,0,-1.0,[],[],images/8.png,1,350,JCH,False,True,0,False,4,2
350,False,1.5,structure_learning,24.0914640427,-1,0,-1.0,[],[],images/9.png,0,351,JCH,False,True,0,False,5,4
351,False,1.5,structure_learning,25.5969719887,-1,0,-1.0,[],[],images/7.png,3,352,JCH,False,True,0,False,6,12
352,False,1.5,structure_learning,27.1021749973,-1,0,-1.0,[],[],images/9.png,0,353,JCH,False,True,0,False,7,2
353,False,1.5,structure_learning,28.607309103,-1,0,-1.0,[],[],images/6.png,10,354,JCH,False,True,2,True,1,8
354,False,1.5,structure_learning,30.1129331589,-1,0,-1.0,[],[],images/2.png,6,355,JCH,False,True,1,True,1,11
355,False,1.5,structure_learning,31.6188421249,-1,0,-1.0,[],[],images/5.png,5,356,JCH,False,True,1,False,2,60
356,False,1.5,structure_learning,33.1240999699,-1,0,-1.0,[],[],images/11.png,4,357,JCH,False,True,0,True,1,8
357,False,1.5,structure_learning,34.6293840408,-1,0,-1.0,[],[],images/8.png,1,358,JCH,False,True,0,False,2,8
358,False,1.5,structure_learning,36.1345951557,-1,0,-1.0,[],[],images/7.png,3,359,JCH,False,True,0,False,3,7
359,False,1.5,structure_learning,37.6398229599,-1,0,-1.0,[],[],images/11.png,4,360,JCH,False,True,0,False,4,3
360,False,1.5,structure_learning,39.1471409798,-1,0,-1.0,[],[],images/8.png,1,361,JCH,False,True,0,False,5,3
361,False,1.5,structure_learning,40.6523890495,-1,0,-1.0,[],[],images/11.png,4,362,JCH,False,True,0,False,6,2
362,False,1.5,structure_learning,42.1576390266,-1,0,-1.0,[],[],images/7.png,3,363,JCH,False,True,0,False,7,4
363,False,1.5,structure_learning,43.6630971432,-1,0,-1.0,[],[],images/8.png,1,364,JCH,False,True,0,False,8,3
364,False,1.5,structure_learning,45.1688001156,-1,0,-1.0,[],[],images/11.png,4,365,JCH,False,True,0,False,9,3
365,False,1.5,structure_learning,46.673979044,-1,0,-1.0,[],[],images/5.png,5,366,JCH,False,True,1,True,1,10
366,False,1.5,structure_learning,48.1803610325,-1,0,-1.0,[],[],images/11.png,4,367,JCH,False,True,0,True,1,2
367,False,1.5,structure_learning,49.6868331432,-1,0,-1.0,[],[],images/7.png,3,368,JCH,False,True,0,False,2,5
368,False,1.5,structure_learning,51.1922791004,-1,0,-1.0,[],[],images/11.png,4,369,JCH,False,True,0,False,3,2
369,False,1.5,structure_learning,52.6972761154,-1,0,-1.0,[],[],images/3.png,2,370,JCH,False,True,0,False,4,32
370,False,1.5,structure_learning,54.2029399872,-1,0,-1.0,[],[],images/11.png,4,371,JCH,False,True,0,False,5,2
371,False,1.5,structure_learning,55.708065033,-1,0,-1.0,[],[],images/3.png,2,372,JCH,False,True,0,False,6,2
372,False,1.5,structure_learning,57.2134461403,-1,0,-1.0,[],[],images/8.png,1,373,JCH,False,True,0,False,7,9
373,False,1.5,structure_learning,58.7187681198,-1,0,-1.0,[],[],images/7.png,3,374,JCH,False,True,0,False,8,6
374,False,1.5,structure_learning,60.2240321636,-1,90,-1.0,[],[],images/8.png,1,375,JCH,False,False,0,False,9,2
375,False,1.5,structure_learning,61.7292621136,-1,0,-1.0,[],[],images/11.png,4,376,JCH,False,False,0,False,10,5
376,False,1.5,structure_learning,63.2357580662,-1,0,-1.0,[],[],images/7.png,3,377,JCH,False,True,0,False,11,3
377,False,1.5,structure_learning,64.7410290241,-1,0,-1.0,[],[],images/8.png,1,378,JCH,False,True,0,False,12,3
378,False,1.5,structure_learning,66.2462179661,-1,90,-1.0,[],[],images/3.png,2,379,JCH,False,False,0,False,13,7
379,False,1.5,structure_learning,67.7518181801,-1,0,-1.0,[],[],images/8.png,1,380,JCH,False,False,0,False,14,2
380,False,1.5,structure_learning,69.25695014,-1,0,-1.0,[],[],images/9.png,0,381,JCH,False,True,0,False,15,28
381,False,1.5,structure_learning,70.7621841431,-1,0,-1.0,[],[],images/6.png,10,382,JCH,False,True,2,True,1,28
382,False,1.5,structure_learning,72.2674701214,-1,0,-1.0,[],[],images/9.png,0,383,JCH,False,True,0,True,1,2
383,False,1.5,structure_learning,73.7727711201,-1,0,-1.0,[],[],images/3.png,2,384,JCH,False,True,0,False,2,5
384,False,1.5,structure_learning,75.2782399654,-1,0,-1.0,[],[],images/9.png,0,385,JCH,False,True,0,False,3,2
385,False,1.5,structure_learning,76.7835149765,-1,0,-1.0,[],[],images/6.png,10,386,JCH,False,True,2,True,1,4
386,False,1.5,structure_learning,78.288944006,-1,0,-1.0,[],[],images/9.png,0,387,JCH,False,True,0,True,1,2
387,False,1.5,structure_learning,79.7943150997,-1,0,-1.0,[],[],images/3.png,2,388,JCH,False,True,0,False,2,4
388,False,1.5,structure_learning,81.2998239994,-1,0,-1.0,[],[],images/8.png,1,389,JCH,False,True,0,False,3,9
389,False,1.5,structure_learning,82.8049800396,-1,90,-1.0,[],[],images/9.png,0,390,JCH,False,False,0,False,4,3
390,False,1.5,structure_learning,84.3102490902,-1,90,-1.0,[],[],images/3.png,2,391,JCH,False,True,0,False,5,3
391,False,1.5,structure_learning,85.8159461021,-1,0,-1.0,[],[],images/11.png,4,392,JCH,False,False,0,False,6,16
392,False,1.5,structure_learning,87.3212401867,-1,0,-1.0,[],[],images/7.png,3,393,JCH,False,True,0,False,7,16
393,False,1.5,structure_learning,88.8265800476,-1,0,-1.0,[],[],images/3.png,2,394,JCH,False,True,0,False,8,3
394,False,1.5,structure_learning,90.3321039677,-1,90,-1.0,[],[],images/7.png,3,395,JCH,False,False,0,False,9,2
395,False,1.5,structure_learning,91.8372340202,-1,0,-1.0,[],[],images/3.png,2,396,JCH,False,False,0,False,10,2
396,False,1.5,structure_learning,93.3426570892,-1,0,-1.0,[],[],images/8.png,1,397,JCH,False,True,0,False,11,8
397,False,1.5,structure_learning,94.8479011059,-1,0,-1.0,[],[],images/9.png,0,398,JCH,False,True,0,False,12,8
398,False,1.5,structure_learning,96.3531181812,-1,90,-1.0,[],[],images/8.png,1,399,JCH,False,False,0,False,13,2
399,False,1.5,structure_learning,97.85841012,-1,0,-1.0,[],[],images/7.png,3,400,JCH,False,False,0,False,14,5
400,False,1.5,structure_learning,99.3639330864,-1,0,-1.0,[],[],images/9.png,0,401,JCH,False,True,0,False,15,3
401,False,1.5,structure_learning,100.869016171,-1,0,-1.0,[],[],images/3.png,2,402,JCH,False,True,0,False,16,6
402,False,1.5,structure_learning,102.37451911,-1,90,-1.0,[],[],images/9.png,0,403,JCH,False,False,0,False,17,2
403,False,1.5,structure_learning,103.879796028,-1,0,-1.0,[],[],images/8.png,1,404,JCH,False,False,0,False,18,5
404,False,1.5,structure_learning,105.385264158,-1,0,-1.0,[],[],images/11.png,4,405,JCH,False,True,0,False,19,13
405,False,1.5,structure_learning,106.890436172,-1,0,-1.0,[],[],images/8.png,1,406,JCH,False,True,0,False,20,2
406,False,1.5,structure_learning,108.395639181,-1,90,-1.0,[],[],images/3.png,2,407,JCH,False,False,0,False,21,5
407,False,1.5,structure_learning,109.900987148,-1,0,-1.0,[],[],images/9.png,0,408,JCH,False,False,0,False,22,5
408,False,1.5,structure_learning,111.406329155,-1,0,-1.0,[],[],images/8.png,1,409,JCH,False,True,0,False,23,3
409,False,1.5,structure_learning,112.911853075,-1,0,-1.0,[],[],images/7.png,3,410,JCH,False,True,0,False,24,10
410,False,1.5,structure_learning,114.417494059,-1,0,-1.0,[],[],images/8.png,1,411,JCH,False,True,0,False,25,2
411,False,1.5,structure_learning,115.922857046,-1,0,-1.0,[],[],images/3.png,2,412,JCH,False,True,0,False,26,5
412,False,1.5,structure_learning,117.428295135,-1,0,-1.0,[],[],images/9.png,0,413,JCH,False,True,0,False,27,5
413,False,1.5,structure_learning,118.933511019,-1,0,-1.0,[],[],images/7.png,3,414,JCH,False,True,0,False,28,4
414,False,1.5,structure_learning,120.438827991,-1,90,-1.0,[],[],images/9.png,0,415,JCH,False,False,0,False,29,2
415,False,1.5,structure_learning,121.944082022,-1,0,-1.0,[],[],images/7.png,3,416,JCH,False,False,0,False,30,2
416,False,1.5,structure_learning,123.449180126,-1,0,-1.0,[],[],images/8.png,1,417,JCH,False,True,0,False,31,6
417,False,1.5,structure_learning,124.954118013,-1,90,-1.0,[],[],images/3.png,2,418,JCH,False,False,0,False,32,6
418,False,1.5,structure_learning,126.459740162,-1,0,-1.0,[],[],images/7.png,3,419,JCH,False,False,0,False,33,3
419,False,1.5,structure_learning,127.965214014,-1,0,-1.0,[],[],images/3.png,2,420,JCH,False,True,0,False,34,2
420,False,1.5,structure_learning,129.470781088,-1,0,-1.0,[],[],images/11.png,4,421,JCH,False,True,0,False,35,16
421,False,1.5,structure_learning,130.976057053,-1,0,-1.0,[],[],images/8.png,1,422,JCH,False,True,0,False,36,5
422,False,1.5,structure_learning,132.483129978,-1,90,-1.0,[],[],images/7.png,3,423,JCH,False,False,0,False,37,4
423,False,1.5,structure_learning,133.988340139,-1,0,-1.0,[],[],images/11.png,4,424,JCH,False,False,0,False,38,3
424,False,1.5,structure_learning,135.493786097,-1,90,-1.0,[],[],images/3.png,2,425,JCH,False,False,0,False,39,5
425,False,1.5,structure_learning,136.999294996,-1,90,-1.0,[],[],images/8.png,1,426,JCH,False,True,0,False,40,4
426,False,1.5,structure_learning,138.505825043,-1,0,-1.0,[],[],images/9.png,0,427,JCH,False,False,0,False,41,12
427,False,1.5,structure_learning,140.010972023,-1,0,-1.0,[],[],images/6.png,10,428,JCH,False,True,2,True,1,42
428,False,1.5,structure_learning,141.516434193,-1,0,-1.0,[],[],images/1.png,9,429,JCH,False,True,1,True,1,112
429,False,1.5,structure_learning,143.021927118,-1,0,-1.0,[],[],images/2.png,6,430,JCH,False,True,1,False,2,75
430,False,1.5,structure_learning,144.527258158,-1,0,-1.0,[],[],images/1.png,9,431,JCH,False,True,1,False,3,2
431,False,1.5,structure_learning,146.032653093,-1,0,-1.0,[],[],images/4.png,7,432,JCH,False,True,1,False,4,87
432,False,1.5,structure_learning,147.538053036,-1,0,-1.0,[],[],images/2.png,6,433,JCH,False,True,1,False,5,3
433,False,1.5,structure_learning,149.043550968,-1,0,-1.0,[],[],images/10.png,8,434,JCH,False,True,1,False,6,91
434,False,1.5,structure_learning,150.551970959,-1,90,-1.0,[],[],images/1.png,9,435,JCH,False,False,1,False,7,4
435,False,1.5,structure_learning,152.05746603,-1,0,-1.0,[],[],images/4.png,7,436,JCH,False,False,1,False,8,4
436,False,1.5,structure_learning,153.563416958,-1,90,-1.0,[],[],images/2.png,6,437,JCH,False,False,1,False,9,4
437,False,1.5,structure_learning,155.069838047,-1,0,-1.0,[],[],images/5.png,5,438,JCH,False,False,1,False,10,72
438,False,1.5,structure_learning,156.575026035,-1,0,-1.0,[],[],images/2.png,6,439,JCH,False,True,1,False,11,2
439,False,1.5,structure_learning,158.080593109,-1,0,-1.0,[],[],images/10.png,8,440,JCH,False,True,1,False,12,6
440,False,1.5,structure_learning,159.589203119,-1,90,-1.0,[],[],images/2.png,6,441,JCH,False,False,1,False,13,2
441,False,1.5,structure_learning,161.094619036,-1,0,-1.0,[],[],images/10.png,8,442,JCH,False,False,1,False,14,2
442,False,1.5,structure_learning,162.603072166,-1,90,-1.0,[],[],images/2.png,6,443,JCH,False,False,1,False,15,2
443,False,1.5,structure_learning,164.108558178,-1,0,-1.0,[],[],images/4.png,7,444,JCH,False,False,1,False,16,8
444,False,1.5,structure_learning,165.614137173,-1,0,-1.0,[],[],images/2.png,6,445,JCH,False,True,1,False,17,2
445,False,1.5,structure_learning,167.119596004,-1,0,-1.0,[],[],images/10.png,8,446,JCH,False,True,1,False,18,4
446,False,1.5,structure_learning,168.628209114,-1,90,-1.0,[],[],images/6.png,10,447,JCH,False,False,2,True,1,19
447,False,1.5,structure_learning,170.133459091,-1,0,-1.0,[],[],images/9.png,0,448,JCH,False,False,0,True,1,21
448,False,1.5,structure_learning,171.63877511,-1,0,-1.0,[],[],images/6.png,10,449,JCH,False,True,2,True,1,2
449,False,1.5,structure_learning,173.144104004,-1,0,-1.0,[],[],images/10.png,8,450,JCH,False,True,1,True,1,4
450,False,1.5,structure_learning,174.652953148,-1,0,-1.0,[],[],images/2.png,6,451,JCH,False,True,1,False,2,6
451,False,1.5,structure_learning,176.161422014,-1,90,-1.0,[],[],images/5.png,5,452,JCH,False,False,1,False,3,14
452,False,1.5,structure_learning,177.666712999,-1,0,-1.0,[],[],images/2.png,6,453,JCH,False,False,1,False,4,2
453,False,1.5,structure_learning,179.173177004,-1,0,-1.0,[],[],images/5.png,5,454,JCH,False,True,1,False,5,2
454,False,1.5,structure_learning,180.678394079,-1,0,-1.0,[],[],images/11.png,4,455,JCH,False,True,0,True,1,31
455,False,1.5,structure_learning,182.183665991,-1,0,-1.0,[],[],images/7.png,3,456,JCH,False,True,0,False,2,33
456,False,1.5,structure_learning,183.689073086,-1,0,-1.0,[],[],images/9.png,0,457,JCH,False,True,0,False,3,9
457,False,1.5,structure_learning,185.194401026,-1,0,-1.0,[],[],images/6.png,10,458,JCH,False,True,2,True,1,9
458,False,1.5,structure_learning,186.701230049,-1,90,-1.0,[],[],images/2.png,6,459,JCH,False,False,1,True,1,6
459,False,1.5,structure_learning,188.206528187,-1,0,-1.0,[],[],images/4.png,7,460,JCH,False,False,1,False,2,16
460,False,1.5,structure_learning,189.713140011,-1,0,-1.0,[],[],images/10.png,8,461,JCH,False,True,1,False,3,11
461,False,1.5,structure_learning,191.221481085,-1,0,-1.0,[],[],images/4.png,7,462,JCH,False,True,1,False,4,2
462,False,1.5,structure_learning,192.726701975,-1,0,-1.0,[],[],images/2.png,6,463,JCH,False,True,1,False,5,4
463,False,1.5,structure_learning,194.232082129,-1,0,-1.0,[],[],images/4.png,7,464,JCH,False,True,1,False,6,2
464,False,1.5,structure_learning,195.737462997,-1,0,-1.0,[],[],images/1.png,9,465,JCH,False,True,1,False,7,30
465,False,1.5,structure_learning,197.242990971,-1,0,-1.0,[],[],images/2.png,6,466,JCH,False,True,1,False,8,3
466,False,1.5,structure_learning,198.748660088,-1,0,-1.0,[],[],images/4.png,7,467,JCH,False,True,1,False,9,3
467,False,1.5,structure_learning,200.254014969,-1,0,-1.0,[],[],images/10.png,8,468,JCH,False,True,1,False,10,7
468,False,1.5,structure_learning,201.762556076,-1,90,-1.0,[],[],images/2.png,6,469,JCH,False,False,1,False,11,3
469,False,1.5,structure_learning,203.268126965,-1,0,-1.0,[],[],images/10.png,8,470,JCH,False,False,1,False,12,2
470,False,1.5,structure_learning,204.776483059,-1,90,-1.0,[],[],images/1.png,9,471,JCH,False,False,1,False,13,6
471,False,1.5,structure_learning,206.283197165,-1,0,-1.0,[],[],images/6.png,10,472,JCH,False,False,2,True,1,14
472,False,1.5,structure_learning,207.788751125,-1,0,-1.0,[],[],images/1.png,9,473,JCH,False,True,1,True,1,2
473,False,1.5,structure_learning,209.294193029,-1,0,-1.0,[],[],images/2.png,6,474,JCH,False,True,1,False,2,5
474,False,1.5,structure_learning,210.799615145,-1,0,-1.0,[],[],images/4.png,7,475,JCH,False,True,1,False,3,8
475,False,1.5,structure_learning,212.304983139,-1,0,-1.0,[],[],images/2.png,6,476,JCH,False,True,1,False,4,2
476,False,1.5,structure_learning,213.810142994,-1,0,-1.0,[],[],images/1.png,9,477,JCH,False,True,1,False,5,4
477,False,1.5,structure_learning,215.316943169,-1,0,-1.0,[],[],images/4.png,7,478,JCH,False,True,1,False,6,3
478,False,1.5,structure_learning,216.82218504,-1,0,-1.0,[],[],images/1.png,9,479,JCH,False,True,1,False,7,2
479,False,1.5,structure_learning,218.327214003,rot,0,1.27557897568,[],[],images/6.png,10,480,JCH,False,True,2,True,1,8
480,True,1.5,structure_learning,219.832318068,unrot,0,1.09387493134,[],[],images/1.png,9,481,JCH,False,True,1,True,1,2
481,False,1.5,structure_learning,221.337535143,-1,0,-1.0,[],[],images/6.png,10,482,JCH,True,True,2,True,1,2
482,True,1.5,structure_learning,222.842688084,unrot,0,0.878583192825,[],[],images/9.png,0,483,JCH,False,True,0,True,1,26
483,True,1.5,structure_learning,224.347717047,unrot,0,0.491765975952,[],[],images/7.png,3,484,JCH,True,True,0,False,2,28
484,True,1.5,structure_learning,225.852897167,unrot,0,0.184524059296,['right'],[1.0962910652160645],images/8.png,1,485,JCH,True,True,0,False,3,59
485,True,1.5,structure_learning,227.357877016,unrot,0,0.606554031372,['right'],[0.9622311592102051],images/11.png,4,486,JCH,True,True,0,False,4,31
486,True,1.5,structure_learning,228.862874985,unrot,0,0.694405078888,[],[],images/3.png,2,487,JCH,True,True,0,False,5,62
487,False,1.5,structure_learning,230.368113041,rot,0,0.0867040157318,['right'],[1.0049679279327393],images/9.png,0,488,JCH,True,True,0,False,6,5
488,False,1.5,structure_learning,231.873209,unrot,90,0.888506889343,[],[],images/8.png,1,489,JCH,False,False,0,False,7,4
489,False,1.5,structure_learning,233.378479958,rot,0,0.519434928894,[],[],images/9.png,0,490,JCH,False,False,0,False,8,2
490,True,1.5,structure_learning,234.883574009,unrot,0,0.774948120117,[],[],images/7.png,3,491,JCH,False,True,0,False,9,7
491,True,1.5,structure_learning,236.388586044,unrot,0,1.21451282501,[],[],images/8.png,1,492,JCH,True,True,0,False,10,3
492,True,1.5,structure_learning,237.893732071,unrot,0,0.796154022217,[],[],images/9.png,0,493,JCH,True,True,0,False,11,3
493,True,1.5,structure_learning,239.398847103,unrot,0,1.19620895386,[],[],images/7.png,3,494,JCH,True,True,0,False,12,3
494,True,1.5,structure_learning,240.903968096,unrot,0,1.1033000946,[],[],images/8.png,1,495,JCH,True,True,0,False,13,3
495,True,1.5,structure_learning,242.409382105,unrot,0,1.04989695549,[],[],images/3.png,2,496,JCH,True,True,0,False,14,9
496,False,1.5,structure_learning,243.915007114,rot,0,0.831102848053,[],[],images/7.png,3,497,JCH,True,True,0,False,15,3
497,True,1.5,structure_learning,245.420492172,unrot,0,0.37896490097,[],[],images/11.png,4,498,JCH,False,True,0,False,16,12
498,True,1.5,structure_learning,246.925819159,unrot,0,1.12032985687,[],[],images/5.png,5,499,JCH,True,True,1,True,1,45
499,True,1.5,structure_learning,248.431118965,unrot,0,0.518876075745,[],[],images/11.png,4,500,JCH,True,True,0,True,1,2
500,True,1.5,structure_learning,249.936340094,unrot,0,0.34639787674,['right'],[1.3137969970703125],images/3.png,2,501,JCH,True,True,0,False,2,5
501,False,1.5,structure_learning,251.441852093,unrot,90,0.950771808624,[],[],images/8.png,1,502,JCH,True,False,0,False,3,7
502,False,1.5,structure_learning,252.947163105,rot,0,0.462463855743,[],[],images/11.png,4,503,JCH,False,False,0,False,4,3
503,True,1.5,structure_learning,254.452414036,unrot,0,0.503526926041,[],[],images/5.png,5,504,JCH,False,True,1,True,1,5
504,True,1.5,structure_learning,255.957645178,unrot,0,0.490145921707,[],[],images/11.png,4,505,JCH,True,True,0,True,1,2
505,True,1.5,structure_learning,257.463114977,unrot,0,0.379885911942,[],[],images/7.png,3,506,JCH,True,True,0,False,2,9
506,True,1.5,structure_learning,258.969875097,unrot,0,0.311029911041,[],[],images/11.png,4,507,JCH,True,True,0,False,3,2
507,True,1.5,structure_learning,260.475036144,unrot,0,0.0111939907074,['right'],[1.0104069709777832],images/3.png,2,508,JCH,True,True,0,False,4,7
508,True,1.5,structure_learning,261.980708122,unrot,0,0.679250001907,[],[],images/8.png,1,509,JCH,True,True,0,False,5,7
509,False,1.5,structure_learning,263.485862017,unrot,90,0.681523084641,[],[],images/3.png,2,510,JCH,True,False,0,False,6,2
510,True,1.5,structure_learning,264.991476059,rot,90,0.573128938675,[],[],images/7.png,3,511,JCH,False,True,0,False,7,5
511,False,1.5,structure_learning,266.498183966,rot,0,0.233618974686,['left'],[1.43924880027771],images/3.png,2,512,JCH,True,False,0,False,8,2
512,True,1.5,structure_learning,268.003694057,rot,90,1.23545193672,[],[],images/9.png,0,513,JCH,False,False,0,False,9,20
513,False,1.5,structure_learning,269.508999109,rot,0,1.19757986069,[],[],images/8.png,1,514,JCH,True,False,0,False,10,5
514,True,1.5,structure_learning,271.014536142,unrot,0,1.12658500671,[],[],images/9.png,0,515,JCH,False,True,0,False,11,2
515,True,1.5,structure_learning,272.519802094,unrot,0,0.421943187714,[],[],images/7.png,3,516,JCH,True,True,0,False,12,5
516,True,1.5,structure_learning,274.025197029,unrot,0,0.0588438510895,['right'],[0.9864017963409424],images/9.png,0,517,JCH,True,True,0,False,13,2
517,False,1.5,structure_learning,275.530584097,unrot,90,0.53603219986,[],[],images/7.png,3,518,JCH,True,False,0,False,14,2
518,False,1.5,structure_learning,277.035850048,rot,0,0.317337036133,[],[],images/3.png,2,519,JCH,False,False,0,False,15,7
519,True,1.5,structure_learning,278.541326046,unrot,0,0.16715502739,[],[],images/11.png,4,520,JCH,False,True,0,False,16,13
520,False,1.5,structure_learning,280.046617031,unrot,90,0.288610935211,[],[],images/7.png,3,521,JCH,True,False,0,False,17,3
521,False,1.5,structure_learning,281.551877975,rot,0,0.594093084335,[],[],images/11.png,4,522,JCH,False,False,0,False,18,2
522,True,1.5,structure_learning,283.057291031,unrot,0,0.86477804184,[],[],images/3.png,2,523,JCH,False,True,0,False,19,4
523,False,1.5,structure_learning,284.562638998,-1,0,-1.0,[],[],images/8.png,1,524,JCH,True,True,0,False,20,10
524,False,1.5,structure_learning,286.067589045,rot,0,0.134229898453,['right'],[0.9092159271240234],images/3.png,2,525,JCH,False,True,0,False,21,2
525,True,1.5,structure_learning,287.57301712,rot,90,1.03969311714,[],[],images/9.png,0,526,JCH,False,False,0,False,22,9
526,False,1.5,structure_learning,289.078341007,rot,0,1.31219005585,[],[],images/8.png,1,527,JCH,True,False,0,False,23,3
527,True,1.5,structure_learning,290.583652973,unrot,0,0.867974042892,[],[],images/7.png,3,528,JCH,False,True,0,False,24,7
528,True,1.5,structure_learning,292.08890605,unrot,0,0.767096996307,[],[],images/9.png,0,529,JCH,True,True,0,False,25,3
529,True,1.5,structure_learning,293.594230175,unrot,0,0.976500034332,[],[],images/8.png,1,530,JCH,True,True,0,False,26,3
530,False,1.5,structure_learning,295.099349976,-1,90,-1.0,[],[],images/9.png,0,531,JCH,True,False,0,False,27,2
531,True,1.5,structure_learning,296.60456419,unrot,0,0.0533821582794,['right'],[0.7827889919281006],images/3.png,2,532,JCH,False,False,0,False,28,7
532,False,1.5,structure_learning,298.110169172,-1,0,-1.0,[],[],images/8.png,1,533,JCH,True,True,0,False,29,3
533,True,1.5,structure_learning,299.615266085,unrot,0,0.814040184021,[],[],images/11.png,4,534,JCH,False,True,0,False,30,12
534,True,1.5,structure_learning,301.120393038,rot,90,0.627324104309,[],[],images/3.png,2,535,JCH,True,False,0,False,31,3
535,True,1.5,structure_learning,302.625715971,unrot,0,0.652662038803,[],[],images/7.png,3,536,JCH,True,False,0,False,32,8
536,False,1.5,structure_learning,304.130709171,rot,0,0.609369039536,[],[],images/11.png,4,537,JCH,True,True,0,False,33,3
537,True,1.5,structure_learning,305.635941982,unrot,0,0.268336057663,[],[],images/5.png,5,538,JCH,False,True,1,True,1,34
538,True,1.5,structure_learning,307.141165972,unrot,0,0.311383962631,[],[],images/11.png,4,539,JCH,True,True,0,True,1,2
539,True,1.5,structure_learning,308.646134138,unrot,0,0.727518081665,[],[],images/7.png,3,540,JCH,True,True,0,False,2,4
540,True,1.5,structure_learning,310.151255131,unrot,0,0.754262924194,[],[],images/11.png,4,541,JCH,True,True,0,False,3,2
541,False,1.5,structure_learning,311.656468153,unrot,90,0.733331918716,[],[],images/8.png,1,542,JCH,True,False,0,False,4,9
542,True,1.5,structure_learning,313.161448002,rot,90,1.04741501808,[],[],images/7.png,3,543,JCH,False,True,0,False,5,3
543,True,1.5,structure_learning,314.666710138,unrot,0,1.15202498436,[],[],images/8.png,1,544,JCH,True,False,0,False,6,2
544,False,1.5,structure_learning,316.171754122,rot,0,1.48986697197,[],[],images/3.png,2,545,JCH,True,True,0,False,7,10
545,True,1.5,structure_learning,317.676882029,unrot,0,0.823629140854,[],[],images/8.png,1,546,JCH,False,True,0,False,8,2
546,False,1.5,structure_learning,319.182101965,rot,0,1.11245417595,[],[],images/7.png,3,547,JCH,True,True,0,False,9,4
547,True,1.5,structure_learning,320.68889308,unrot,0,1.19298696518,[],[],images/11.png,4,548,JCH,False,True,0,False,10,7
548,False,1.5,structure_learning,322.194000006,unrot,90,0.790148019791,[],[],images/5.png,5,549,JCH,True,False,1,True,1,11
549,False,1.5,structure_learning,323.699246168,rot,0,0.762586832047,[],[],images/2.png,6,550,JCH,False,False,1,False,2,74
550,True,1.5,structure_learning,325.204564095,rot,90,0.888927936554,[],[],images/10.png,8,551,JCH,False,False,1,False,3,81
551,True,1.5,structure_learning,326.713160992,unrot,0,1.0170249939,[],[],images/4.png,7,552,JCH,True,False,1,False,4,74
552,False,1.5,structure_learning,328.21845603,rot,0,1.02056097984,[],[],images/6.png,10,553,JCH,True,True,2,True,1,71
553,False,1.5,structure_learning,329.723910093,rot,0,1.30088019371,[],[],images/9.png,0,554,JCH,False,True,0,True,1,23
554,True,1.5,structure_learning,331.229087114,unrot,0,0.991712093353,[],[],images/6.png,10,555,JCH,False,True,2,True,1,2
555,True,1.5,structure_learning,332.734333992,unrot,0,0.728356838226,[],[],images/10.png,8,556,JCH,True,True,1,True,1,5
556,False,1.5,structure_learning,334.243034124,unrot,90,0.929478883743,[],[],images/2.png,6,557,JCH,True,False,1,False,2,7
557,True,1.5,structure_learning,335.748389006,unrot,0,1.3130800724,[],[],images/1.png,9,558,JCH,False,False,1,False,3,77
558,False,1.5,structure_learning,337.253641129,rot,0,0.871919870377,[],[],images/2.png,6,559,JCH,True,True,1,False,4,2
559,True,1.5,structure_learning,338.759056091,unrot,0,0.507585763931,[],[],images/4.png,7,560,JCH,False,True,1,False,5,8
560,False,1.5,structure_learning,340.264314175,unrot,90,0.554259061813,[],[],images/10.png,8,561,JCH,True,False,1,False,6,5
561,True,1.5,structure_learning,341.772929192,rot,90,0.659780025482,[],[],images/6.png,10,562,JCH,False,True,2,True,1,7
562,False,1.5,structure_learning,343.279664993,rot,0,0.638396024704,[],[],images/2.png,6,563,JCH,True,False,1,True,1,4
563,True,1.5,structure_learning,344.78512907,rot,90,0.839504003525,[],[],images/1.png,9,564,JCH,False,False,1,False,2,6
564,True,1.5,structure_learning,346.290450096,unrot,0,0.615117073059,[],[],images/10.png,8,565,JCH,True,False,1,False,3,4
565,True,1.5,structure_learning,347.79893899,unrot,0,0.720478057861,[],[],images/2.png,6,566,JCH,True,True,1,False,4,3
566,True,1.5,structure_learning,349.304337978,unrot,0,0.834005117416,[],[],images/1.png,9,567,JCH,True,True,1,False,5,3
567,False,1.5,structure_learning,350.809792042,unrot,90,0.666217088699,[],[],images/10.png,8,568,JCH,True,False,1,False,6,3
568,False,1.5,structure_learning,352.318287134,rot,0,1.09900808334,[],[],images/2.png,6,569,JCH,False,False,1,False,7,3
569,True,1.5,structure_learning,353.823742151,unrot,0,0.742650985718,[],[],images/4.png,7,570,JCH,False,True,1,False,8,10
570,False,1.5,structure_learning,355.328931093,rot,0,0.950350046158,[],[],images/10.png,8,571,JCH,True,True,1,False,9,3
571,True,1.5,structure_learning,356.837324142,unrot,0,0.792272806168,[],[],images/6.png,10,572,JCH,False,True,2,True,1,10
572,True,1.5,structure_learning,358.342828989,unrot,0,0.707813978195,[],[],images/1.png,9,573,JCH,True,True,1,True,1,6
573,True,1.5,structure_learning,359.84811306,rot,90,1.01834607124,[],[],images/10.png,8,574,JCH,True,False,1,False,2,3
574,False,1.5,structure_learning,361.356805086,rot,0,0.925359010696,[],[],images/6.png,10,575,JCH,True,False,2,True,1,3
575,True,1.5,structure_learning,362.862282038,rot,90,1.00447392464,[],[],images/10.png,8,576,JCH,False,False,1,True,1,2
576,True,1.5,structure_learning,364.370790958,unrot,0,0.758953094482,[],[],images/4.png,7,577,JCH,True,False,1,False,2,7
577,True,1.5,structure_learning,365.876118183,unrot,0,0.991695165634,[],[],images/2.png,6,578,JCH,True,True,1,False,3,9
578,False,1.5,structure_learning,367.381536961,unrot,90,1.12605404854,[],[],images/10.png,8,579,JCH,True,False,1,False,4,3
579,True,1.5,structure_learning,368.890079975,unrot,0,0.969372987747,[],[],images/2.png,6,580,JCH,False,False,1,False,5,2
580,False,1.5,structure_learning,370.395539999,rot,0,0.870218038559,[],[],images/5.png,5,581,JCH,True,True,1,False,6,32
581,True,1.5,structure_learning,371.900771141,unrot,0,0.799508094788,[],[],images/2.png,6,582,JCH,False,True,1,False,7,2
582,False,1.5,structure_learning,373.406172037,unrot,90,0.896854162216,[],[],images/4.png,7,583,JCH,True,False,1,False,8,6
583,False,1.5,structure_learning,374.91181016,rot,0,0.810276985168,[],[],images/10.png,8,584,JCH,False,False,1,False,9,5
584,False,1.5,structure_learning,376.420493126,unrot,90,0.501676082611,[],[],images/1.png,9,585,JCH,False,False,1,False,10,12
585,True,1.5,structure_learning,377.925871134,unrot,0,0.805104017258,[],[],images/4.png,7,586,JCH,False,False,1,False,11,3
586,True,1.5,structure_learning,379.432696104,unrot,0,0.879204034805,[],[],images/1.png,9,587,JCH,True,True,1,False,12,2
587,False,1.5,structure_learning,380.93812108,unrot,90,1.25558781624,[],[],images/6.png,10,588,JCH,True,False,2,True,1,13
588,False,1.5,structure_learning,382.443432093,rot,0,0.827868938446,[],[],images/10.png,8,589,JCH,False,False,1,True,1,5
589,False,1.5,structure_learning,383.951825142,rot,0,1.06074786186,[],[],images/6.png,10,590,JCH,False,True,2,True,1,2
590,True,1.5,structure_learning,385.457269192,rot,90,0.976087808609,[],[],images/1.png,9,591,JCH,False,False,1,True,1,4
591,False,1.5,structure_learning,386.962499142,-1,0,-1.0,[],[],images/4.png,7,592,JCH,True,False,1,False,2,6
592,False,1.5,structure_learning,388.467894077,-1,0,-1.0,[],[],images/6.png,10,593,JCH,False,True,2,True,1,3
593,False,1.5,structure_learning,389.973065138,rot,0,0.772884130478,[],[],images/9.png,0,594,JCH,False,True,0,True,1,40
594,True,1.5,structure_learning,391.478273153,unrot,0,0.374991178513,[],[],images/3.png,2,595,JCH,False,True,0,False,2,50
595,True,1.5,structure_learning,392.985107183,unrot,0,0.655822038651,[],[],images/11.png,4,596,JCH,True,True,0,False,3,48
596,True,1.5,structure_learning,394.490310192,unrot,0,0.499269962311,[],[],images/3.png,2,597,JCH,True,True,0,False,4,2
597,True,1.5,structure_learning,395.995809078,unrot,0,0.557428836823,[],[],images/11.png,4,598,JCH,True,True,0,False,5,2
598,True,1.5,structure_learning,397.501060009,unrot,0,0.52826499939,[],[],images/3.png,2,599,JCH,True,True,0,False,6,2
599,True,1.5,structure_learning,399.006374121,unrot,0,0.561489105225,[],[],images/7.png,3,600,JCH,True,True,0,False,7,53
600,True,1.5,structure_learning,400.512886047,unrot,0,0.508517980576,[],[],images/8.png,1,601,JCH,True,True,0,False,8,55
601,True,1.5,structure_learning,402.018057108,unrot,0,0.78938794136,[],[],images/11.png,4,602,JCH,True,True,0,False,9,4
602,True,1.5,structure_learning,403.523123026,unrot,0,0.56160902977,[],[],images/5.png,5,603,JCH,True,True,1,True,1,22
603,False,1.5,structure_learning,405.028357983,unrot,90,0.508195161819,[],[],images/2.png,6,604,JCH,True,False,1,False,2,22
604,True,1.5,structure_learning,406.533735037,rot,90,0.731504917145,[],[],images/10.png,8,605,JCH,False,True,1,False,3,16
605,False,1.5,structure_learning,408.042010069,unrot,90,0.57356595993,[],[],images/2.png,6,606,JCH,True,True,1,False,4,2
606,True,1.5,structure_learning,409.547425985,unrot,0,0.957493782043,[],[],images/1.png,9,607,JCH,False,False,1,False,5,16
607,False,1.5,structure_learning,411.052736998,rot,0,0.977781057358,[],[],images/6.png,10,608,JCH,True,True,2,True,1,15
608,True,1.5,structure_learning,412.557837963,unrot,0,1.36053705215,[],[],images/1.png,9,609,JCH,False,True,1,True,1,2
609,False,1.5,structure_learning,414.063084126,rot,0,1.13914680481,[],[],images/10.png,8,610,JCH,True,True,1,False,2,5
610,True,1.5,structure_learning,415.571455002,unrot,0,0.631795883179,[],[],images/1.png,9,611,JCH,False,True,1,False,3,2
611,False,1.5,structure_learning,417.07667613,unrot,90,0.634445905685,[],[],images/2.png,6,612,JCH,True,False,1,False,4,6
612,True,1.5,structure_learning,418.58199811,unrot,0,0.811847925186,[],[],images/1.png,9,613,JCH,False,False,1,False,5,2
613,True,1.5,structure_learning,420.087304115,unrot,0,0.949600934982,[],[],images/4.png,7,614,JCH,True,True,1,False,6,22
614,True,1.5,structure_learning,421.592602968,unrot,0,1.26976299286,[],[],images/6.png,10,615,JCH,True,True,2,True,1,7
615,True,1.5,structure_learning,423.098042965,unrot,0,1.05006885529,[],[],images/2.png,6,616,JCH,True,True,1,True,1,4
616,True,1.5,structure_learning,424.603368044,unrot,0,0.890767812729,[],[],images/10.png,8,617,JCH,True,True,1,False,2,7
617,True,1.5,structure_learning,426.111678123,unrot,0,0.948134899139,[],[],images/1.png,9,618,JCH,True,True,1,False,3,5
618,True,1.5,structure_learning,427.617645025,rot,90,0.999423980713,[],[],images/2.png,6,619,JCH,True,False,1,False,4,3
619,True,1.5,structure_learning,429.123244047,rot,90,1.01002192497,[],[],images/4.png,7,620,JCH,True,True,1,False,5,6
620,False,1.5,structure_learning,430.628479004,-1,0,-1.0,[],[],images/2.png,6,621,JCH,True,False,1,False,6,2
621,True,1.5,structure_learning,432.13373518,rot,90,0.219033956528,['right'],[1.4072151184082031],images/10.png,8,622,JCH,False,False,1,False,7,5
622,True,1.5,structure_learning,433.642127037,rot,90,0.831012010574,[],[],images/2.png,6,623,JCH,True,True,1,False,8,2
623,False,1.5,structure_learning,435.147531033,rot,0,0.722501993179,[],[],images/5.png,5,624,JCH,True,False,1,False,9,21
624,False,1.5,structure_learning,436.652760029,unrot,90,1.08926892281,[],[],images/11.png,4,625,JCH,False,False,0,True,1,23
625,True,1.5,structure_learning,438.158037186,unrot,0,1.14677786827,[],[],images/8.png,1,626,JCH,False,False,0,False,2,25
626,True,1.5,structure_learning,439.664303064,unrot,0,1.23629999161,[],[],images/3.png,2,627,JCH,True,True,0,False,3,28
627,True,1.5,structure_learning,441.169759035,unrot,0,0.858036994934,[],[],images/11.png,4,628,JCH,True,True,0,False,4,3
628,True,1.5,structure_learning,442.674692154,unrot,0,0.653869867325,[],[],images/7.png,3,629,JCH,True,True,0,False,5,29
629,True,1.5,structure_learning,444.179674149,unrot,0,0.887768030167,[],[],images/11.png,4,630,JCH,True,True,0,False,6,2
630,True,1.5,structure_learning,445.684692144,unrot,0,0.564962148666,[],[],images/5.png,5,631,JCH,True,True,1,True,1,7
631,False,1.5,structure_learning,447.189558983,unrot,90,0.568170070648,[],[],images/11.png,4,632,JCH,True,False,0,True,1,2
632,False,1.5,structure_learning,448.694502115,rot,0,0.604055166245,[],[],images/7.png,3,633,JCH,False,False,0,False,2,4
633,True,1.5,structure_learning,450.199906111,unrot,0,0.844044923782,[],[],images/11.png,4,634,JCH,False,True,0,False,3,2
634,True,1.5,structure_learning,451.704957008,unrot,0,0.688408136368,[],[],images/5.png,5,635,JCH,True,True,1,True,1,4
635,False,1.5,structure_learning,453.209788084,-1,0,-1.0,[],[],images/11.png,4,636,JCH,True,True,0,True,1,2
636,False,1.5,structure_learning,454.714899063,rot,0,0.0216419696808,['right'],[0.8126838207244873],images/8.png,1,637,JCH,False,True,0,False,2,11
637,True,1.5,structure_learning,456.219990969,unrot,0,0.935168981552,[],[],images/11.png,4,638,JCH,False,True,0,False,3,2
638,False,1.5,structure_learning,457.724986076,unrot,90,0.874413013458,[],[],images/7.png,3,639,JCH,True,False,0,False,4,6
639,True,1.5,structure_learning,459.23025012,unrot,0,1.11588191986,[],[],images/8.png,1,640,JCH,False,False,0,False,5,3
640,True,1.5,structure_learning,460.735344172,unrot,0,1.11831903458,[],[],images/7.png,3,641,JCH,True,True,0,False,6,2
641,True,1.5,structure_learning,462.240564108,unrot,0,0.659015893936,[],[],images/8.png,1,642,JCH,True,True,0,False,7,2
642,True,1.5,structure_learning,463.747080088,unrot,0,1.01830101013,[],[],images/9.png,0,643,JCH,True,True,0,False,8,49
643,False,1.5,structure_learning,465.253561974,unrot,90,0.814540863037,[],[],images/6.png,10,644,JCH,True,False,2,True,1,29
644,True,1.5,structure_learning,466.758969069,unrot,0,0.817489147186,[],[],images/1.png,9,645,JCH,False,False,1,True,1,27
645,True,1.5,structure_learning,468.2642591,unrot,0,1.13822698593,[],[],images/4.png,7,646,JCH,True,True,1,False,2,26
646,True,1.5,structure_learning,469.769613981,unrot,0,0.804102182388,[],[],images/10.png,8,647,JCH,True,True,1,False,3,25
647,True,1.5,structure_learning,471.278038025,rot,90,1.1420109272,[],[],images/6.png,10,648,JCH,True,False,2,True,1,4
648,True,1.5,structure_learning,472.783442974,rot,90,0.982371091843,[],[],images/10.png,8,649,JCH,True,True,1,True,1,2
649,False,1.5,structure_learning,474.291872025,unrot,90,1.03896093369,[],[],images/6.png,10,650,JCH,True,True,2,True,1,2
650,False,1.5,structure_learning,475.797203064,rot,0,0.982105970383,[],[],images/10.png,8,651,JCH,False,False,1,True,1,2
651,True,1.5,structure_learning,477.307626009,unrot,0,0.927659988403,[],[],images/4.png,7,652,JCH,False,True,1,False,2,6
652,False,1.5,structure_learning,478.813171148,unrot,90,1.24699401855,[],[],images/6.png,10,653,JCH,True,False,2,True,1,3
653,False,1.5,structure_learning,480.319619179,-1,0,-1.0,[],[],images/2.png,6,654,JCH,False,False,1,True,1,31
654,False,1.5,structure_learning,481.824846029,rot,0,0.119158983231,[],[],images/4.png,7,655,JCH,False,True,1,False,2,3
655,False,1.5,structure_learning,483.330178022,rot,0,0.868417978287,[],[],images/6.png,10,656,JCH,False,True,2,True,1,3
656,True,1.5,structure_learning,484.835551023,unrot,0,0.758167982101,[],[],images/2.png,6,657,JCH,False,True,1,True,1,3
657,True,1.5,structure_learning,486.340850115,unrot,0,0.768623113632,[],[],images/4.png,7,658,JCH,True,True,1,False,2,3
658,False,1.5,structure_learning,487.846095085,unrot,90,1.16691398621,[],[],images/2.png,6,659,JCH,True,False,1,False,3,2
659,True,1.5,structure_learning,489.352737188,unrot,0,0.756199836731,[],[],images/1.png,9,660,JCH,False,False,1,False,4,15
660,False,1.5,structure_learning,490.857998133,rot,0,0.680768013,[],[],images/6.png,10,661,JCH,True,True,2,True,1,5
661,True,1.5,structure_learning,492.363269091,unrot,0,0.507144927979,[],[],images/2.png,6,662,JCH,False,True,1,True,1,3
662,True,1.5,structure_learning,493.868559122,unrot,0,0.493677854538,[],[],images/1.png,9,663,JCH,True,True,1,False,2,3
663,True,1.5,structure_learning,495.373933077,unrot,0,0.813815116882,[],[],images/2.png,6,664,JCH,True,True,1,False,3,2
664,False,1.5,structure_learning,496.879444122,rot,0,0.546731948853,[],[],images/5.png,5,665,JCH,True,True,1,False,4,30
665,True,1.5,structure_learning,498.385570049,unrot,0,0.333271026611,[],[],images/11.png,4,666,JCH,False,True,0,True,1,28
666,True,1.5,structure_learning,499.891177177,unrot,0,0.447017908096,[],[],images/5.png,5,667,JCH,True,True,1,True,1,2
667,True,1.5,structure_learning,6.8187713623e-05,unrot,0,1.20273590088,[],[],images/11.png,4,668,JCH,True,True,0,True,1,2
668,True,1.5,structure_learning,1.5053460598,unrot,0,0.784443855286,[],[],images/7.png,3,669,JCH,True,True,0,False,2,28
669,True,1.5,structure_learning,3.01048016548,unrot,0,0.729891061783,[],[],images/11.png,4,670,JCH,True,True,0,False,3,2
670,True,1.5,structure_learning,4.51730513573,unrot,0,0.684857845306,[],[],images/5.png,5,671,JCH,True,True,1,True,1,4
671,True,1.5,structure_learning,6.02241110802,unrot,0,0.62422990799,[],[],images/11.png,4,672,JCH,True,True,0,True,1,2
672,False,1.5,structure_learning,7.52750515938,unrot,90,0.833297967911,[],[],images/3.png,2,673,JCH,True,False,0,False,2,46
673,False,1.5,structure_learning,9.03292703629,rot,0,0.709068059921,[],[],images/7.png,3,674,JCH,False,False,0,False,3,5
674,True,1.5,structure_learning,10.5395541191,unrot,0,1.05975294113,[],[],images/8.png,1,675,JCH,False,True,0,False,4,33
675,True,1.5,structure_learning,12.044754982,unrot,0,0.903778076172,[],[],images/7.png,3,676,JCH,True,True,0,False,5,2
676,True,1.5,structure_learning,13.5500781536,unrot,0,0.858757972717,[],[],images/8.png,1,677,JCH,True,True,0,False,6,2
677,True,1.5,structure_learning,15.0550291538,unrot,0,0.60732293129,[],[],images/11.png,4,678,JCH,True,True,0,False,7,6
678,True,1.5,structure_learning,16.5602591038,unrot,0,0.626008987427,[],[],images/7.png,3,679,JCH,True,True,0,False,8,3
679,True,1.5,structure_learning,18.0654871464,unrot,0,0.565065145493,[],[],images/8.png,1,680,JCH,True,True,0,False,9,3
680,True,1.5,structure_learning,19.5707321167,unrot,0,0.662935018539,[],[],images/7.png,3,681,JCH,True,True,0,False,10,2
681,True,1.5,structure_learning,21.0759720802,unrot,0,0.729089975357,[],[],images/11.png,4,682,JCH,True,True,0,False,11,4
682,True,1.5,structure_learning,22.5812301636,rot,90,0.88424706459,[],[],images/8.png,1,683,JCH,True,False,0,False,12,3
683,False,1.5,structure_learning,24.0863671303,rot,0,0.696063995361,[],[],images/3.png,2,684,JCH,True,False,0,False,13,11
684,True,1.5,structure_learning,25.5916891098,unrot,0,0.657624006271,[],[],images/11.png,4,685,JCH,False,True,0,False,14,3
685,False,1.5,structure_learning,27.0967850685,rot,0,0.828412055969,[],[],images/5.png,5,686,JCH,True,True,1,True,1,15
686,False,1.5,structure_learning,28.6019060612,unrot,90,1.25834393501,[],[],images/11.png,4,687,JCH,False,False,0,True,1,2
687,False,1.5,structure_learning,30.107309103,-1,90,-1.0,[],[],images/5.png,5,688,JCH,False,True,1,True,1,2
688,True,1.5,structure_learning,31.6125149727,unrot,0,0.661962985992,[],[],images/11.png,4,689,JCH,False,False,0,True,1,2
689,False,1.5,structure_learning,33.1176409721,rot,0,0.689792871475,[],[],images/7.png,3,690,JCH,True,True,0,False,2,9
690,True,1.5,structure_learning,34.6229631901,rot,90,1.36004304886,[],[],images/11.png,4,691,JCH,False,False,0,False,3,2
691,True,1.5,structure_learning,36.1278891563,unrot,0,1.07423400879,[],[],images/8.png,1,692,JCH,True,False,0,False,4,9
692,True,1.5,structure_learning,37.6340479851,unrot,0,1.17923688889,[],[],images/7.png,3,693,JCH,True,True,0,False,5,3
693,True,1.5,structure_learning,39.1403460503,unrot,0,1.14216709137,[],[],images/8.png,1,694,JCH,True,True,0,False,6,2
694,True,1.5,structure_learning,40.6455821991,rot,90,0.780642986298,[],[],images/3.png,2,695,JCH,True,False,0,False,7,11
695,True,1.5,structure_learning,42.1509690285,unrot,0,0.757949113846,[],[],images/7.png,3,696,JCH,True,False,0,False,8,3
696,False,1.5,structure_learning,43.6561791897,rot,0,0.825722932816,[],[],images/8.png,1,697,JCH,True,True,0,False,9,3
697,True,1.5,structure_learning,45.1612210274,unrot,0,0.572752952576,[],[],images/9.png,0,698,JCH,False,True,0,False,10,55
698,True,1.5,structure_learning,46.6663541794,unrot,0,0.813937902451,[],[],images/8.png,1,699,JCH,True,True,0,False,11,2
699,True,1.5,structure_learning,48.1714999676,unrot,0,0.689265012741,[],[],images/3.png,2,700,JCH,True,True,0,False,12,5
700,True,1.5,structure_learning,49.6766970158,unrot,0,0.834988117218,[],[],images/11.png,4,701,JCH,True,True,0,False,13,10
701,True,1.5,structure_learning,51.1818811893,unrot,0,0.551422119141,[],[],images/3.png,2,702,JCH,True,True,0,False,14,2
702,True,1.5,structure_learning,52.6873230934,unrot,0,0.610064983368,[],[],images/8.png,1,703,JCH,True,True,0,False,15,4
703,True,1.5,structure_learning,54.1923980713,unrot,0,0.954421043396,[],[],images/11.png,4,704,JCH,True,True,0,False,16,3
704,False,1.5,structure_learning,55.6976521015,unrot,90,0.543591976166,[],[],images/3.png,2,705,JCH,True,False,0,False,17,3
705,True,1.5,structure_learning,57.203068018,rot,90,1.02428102493,[],[],images/7.png,3,706,JCH,False,True,0,False,18,10
706,True,1.5,structure_learning,58.7084829807,rot,90,0.899968862534,[],[],images/8.png,1,707,JCH,True,True,0,False,19,4
707,True,1.5,structure_learning,60.2136180401,rot,90,0.767484903336,[],[],images/3.png,2,708,JCH,True,True,0,False,20,3
708,True,1.5,structure_learning,61.7190401554,unrot,0,0.951699972153,[],[],images/11.png,4,709,JCH,True,False,0,False,21,5
709,True,1.5,structure_learning,63.224186182,unrot,0,1.03372693062,[],[],images/8.png,1,710,JCH,True,True,0,False,22,3
710,False,1.5,structure_learning,64.7293431759,rot,0,0.934449911118,[],[],images/11.png,4,711,JCH,True,True,0,False,23,2
711,True,1.5,structure_learning,66.2344989777,unrot,0,0.609656095505,[],[],images/7.png,3,712,JCH,False,True,0,False,24,6
712,False,1.5,structure_learning,67.7397670746,rot,0,0.851355075836,[],[],images/9.png,0,713,JCH,True,True,0,False,25,15
713,True,1.5,structure_learning,69.245470047,unrot,0,0.637934923172,[],[],images/7.png,3,714,JCH,False,True,0,False,26,2
714,True,1.5,structure_learning,70.7506890297,unrot,0,0.934444189072,[],[],images/9.png,0,715,JCH,True,True,0,False,27,2
715,False,1.5,structure_learning,72.2558221817,rot,0,0.858737230301,[],[],images/3.png,2,716,JCH,True,True,0,False,28,8
716,True,1.5,structure_learning,73.7612521648,unrot,0,1.00261902809,[],[],images/8.png,1,717,JCH,False,True,0,False,29,7
717,True,1.5,structure_learning,75.266502142,rot,90,0.768549919128,[],[],images/9.png,0,718,JCH,True,False,0,False,30,3
718,False,1.5,structure_learning,76.7715640068,rot,0,1.02506494522,[],[],images/6.png,10,719,JCH,True,False,2,True,1,58
719,True,1.5,structure_learning,78.2769021988,unrot,0,0.882911920547,[],[],images/1.png,9,720,JCH,False,True,1,True,1,57
720,False,1.5,structure_learning,79.7821481228,rot,0,1.10944700241,[],[],images/2.png,6,721,JCH,True,True,1,False,2,57
721,False,1.5,structure_learning,81.2876169682,rot,0,0.941812992096,[],[],images/10.png,8,722,JCH,False,True,1,False,3,71
722,True,1.5,structure_learning,82.7961001396,unrot,0,0.799758911133,[],[],images/2.png,6,723,JCH,False,True,1,False,4,2
723,True,1.5,structure_learning,84.3015229702,unrot,0,0.699027061462,[],[],images/5.png,5,724,JCH,True,True,1,False,5,36
724,True,1.5,structure_learning,85.806622982,unrot,0,0.765026807785,[],[],images/2.png,6,725,JCH,True,True,1,False,6,2
725,True,1.5,structure_learning,87.312057972,unrot,0,0.720050096512,[],[],images/5.png,5,726,JCH,True,True,1,False,7,2
726,False,1.5,structure_learning,88.8172550201,unrot,90,0.944943189621,[],[],images/2.png,6,727,JCH,True,False,1,False,8,2
727,True,1.5,structure_learning,90.322687149,unrot,0,0.717042207718,[],[],images/5.png,5,728,JCH,False,False,1,False,9,2
728,True,1.5,structure_learning,91.8278331757,unrot,0,0.823007106781,[],[],images/11.png,4,729,JCH,True,True,0,True,1,18
729,True,1.5,structure_learning,93.3330850601,unrot,0,0.857667207718,[],[],images/5.png,5,730,JCH,True,True,1,True,1,2
730,False,1.5,structure_learning,94.8382501602,rot,0,0.980857133865,[],[],images/11.png,4,731,JCH,True,True,0,True,1,2
731,True,1.5,structure_learning,96.343528986,unrot,0,0.743479013443,[],[],images/7.png,3,732,JCH,False,True,0,False,2,18
732,True,1.5,structure_learning,97.8487660885,unrot,0,0.666327953339,[],[],images/3.png,2,733,JCH,True,True,0,False,3,17
733,True,1.5,structure_learning,99.3542320728,unrot,0,0.923648118973,[],[],images/8.png,1,734,JCH,True,True,0,False,4,17
734,False,1.5,structure_learning,100.859189034,unrot,90,0.854997158051,[],[],images/9.png,0,735,JCH,True,False,0,False,5,17
735,True,1.5,structure_learning,102.3643291,unrot,0,1.19917297363,[],[],images/7.png,3,736,JCH,False,False,0,False,6,4
736,True,1.5,structure_learning,103.869436026,unrot,0,1.02719497681,[],[],images/11.png,4,737,JCH,True,True,0,False,7,6
737,True,1.5,structure_learning,105.374462128,unrot,0,1.02969193459,[],[],images/5.png,5,738,JCH,True,True,1,True,1,8
738,False,1.5,structure_learning,106.879417181,rot,0,0.882710933685,[],[],images/11.png,4,739,JCH,True,True,0,True,1,2
739,False,1.5,structure_learning,108.384682178,unrot,90,0.621490955353,[],[],images/7.png,3,740,JCH,False,False,0,False,2,4
740,False,1.5,structure_learning,109.889815092,unrot,90,0.592122077942,[],[],images/3.png,2,741,JCH,False,True,0,False,3,8
741,True,1.5,structure_learning,111.395052195,rot,90,1.0252699852,[],[],images/8.png,1,742,JCH,False,True,0,False,4,8
742,True,1.5,structure_learning,112.900247097,unrot,0,1.11396479607,[],[],images/11.png,4,743,JCH,True,False,0,False,5,4
743,True,1.5,structure_learning,114.405560017,unrot,0,0.663540840149,[],[],images/3.png,2,744,JCH,True,True,0,False,6,3
744,False,1.5,structure_learning,115.910727024,rot,0,1.45498299599,[],[],images/11.png,4,745,JCH,True,True,0,False,7,2
745,True,1.5,structure_learning,117.415711164,unrot,0,0.685378074646,[],[],images/3.png,2,746,JCH,False,True,0,False,8,2
746,True,1.5,structure_learning,118.920835972,rot,90,0.96794295311,[],[],images/9.png,0,747,JCH,True,False,0,False,9,12
747,True,1.5,structure_learning,120.425860167,unrot,0,0.802384853363,[],[],images/8.png,1,748,JCH,True,False,0,False,10,6
748,True,1.5,structure_learning,121.93088603,unrot,0,1.16319489479,[],[],images/3.png,2,749,JCH,True,True,0,False,11,3
749,True,1.5,structure_learning,123.436103106,unrot,0,0.721088171005,[],[],images/11.png,4,750,JCH,True,True,0,False,12,5
750,True,1.5,structure_learning,124.940962076,unrot,0,0.851280927658,[],[],images/8.png,1,751,JCH,True,True,0,False,13,3
751,True,1.5,structure_learning,126.445964098,unrot,0,0.663363933563,[],[],images/9.png,0,752,JCH,True,True,0,False,14,5
752,True,1.5,structure_learning,127.951145172,unrot,0,0.577428817749,[],[],images/8.png,1,753,JCH,True,True,0,False,15,2
753,True,1.5,structure_learning,129.457709074,unrot,0,0.508470773697,[],[],images/11.png,4,754,JCH,True,True,0,False,16,4
754,False,1.5,structure_learning,130.962999105,unrot,90,0.455765008926,[],[],images/8.png,1,755,JCH,True,False,0,False,17,2
755,False,1.5,structure_learning,132.468217134,rot,0,0.586885929108,[],[],images/7.png,3,756,JCH,False,False,0,False,18,16
756,True,1.5,structure_learning,133.973519087,unrot,0,0.689779996872,[],[],images/8.png,1,757,JCH,False,True,0,False,19,2
757,False,1.5,structure_learning,135.480108976,unrot,90,0.755951881409,[],[],images/7.png,3,758,JCH,True,False,0,False,20,2
758,True,1.5,structure_learning,136.985646009,unrot,0,0.599940061569,[],[],images/8.png,1,759,JCH,False,False,0,False,21,2
759,True,1.5,structure_learning,138.490539074,unrot,0,0.650349140167,[],[],images/3.png,2,760,JCH,True,True,0,False,22,11
760,True,1.5,structure_learning,139.99557519,unrot,0,0.533592939377,[],[],images/8.png,1,761,JCH,True,True,0,False,23,2
761,True,1.5,structure_learning,141.500655174,unrot,0,0.671693086624,[],[],images/7.png,3,762,JCH,True,True,0,False,24,4
762,True,1.5,structure_learning,143.005707979,unrot,0,0.547430038452,[],[],images/8.png,1,763,JCH,True,True,0,False,25,2
763,True,1.5,structure_learning,144.51072216,unrot,0,0.557943105698,[],[],images/9.png,0,764,JCH,True,True,0,False,26,12
764,True,1.5,structure_learning,146.015587091,unrot,0,0.664309024811,[],[],images/7.png,3,765,JCH,True,True,0,False,27,3
765,True,1.5,structure_learning,147.520516157,unrot,0,0.508074045181,[],[],images/8.png,1,766,JCH,True,True,0,False,28,3
766,True,1.5,structure_learning,149.025606155,unrot,0,0.542081832886,[],[],images/11.png,4,767,JCH,True,True,0,False,29,13
767,True,1.5,structure_learning,150.53113699,unrot,0,0.647906064987,[],[],images/5.png,5,768,JCH,True,True,1,True,1,30
768,True,1.5,structure_learning,152.036313057,unrot,0,0.563425064087,[],[],images/11.png,4,769,JCH,True,True,0,True,1,2
769,False,1.5,structure_learning,153.541531086,unrot,90,0.637097120285,[],[],images/3.png,2,770,JCH,True,False,0,False,2,10
770,False,1.5,structure_learning,155.046967983,rot,0,0.800276041031,[],[],images/7.png,3,771,JCH,False,False,0,False,3,6
771,True,1.5,structure_learning,156.552253008,unrot,0,0.427886009216,[],[],images/3.png,2,772,JCH,False,True,0,False,4,2
772,True,1.5,structure_learning,158.057677984,unrot,0,0.485913038254,[],[],images/7.png,3,773,JCH,True,True,0,False,5,2
773,True,1.5,structure_learning,159.562849045,unrot,0,0.806738138199,[],[],images/9.png,0,774,JCH,True,True,0,False,6,10
774,True,1.5,structure_learning,161.067770004,unrot,0,0.817077159882,[],[],images/8.png,1,775,JCH,True,True,0,False,7,9
775,True,1.5,structure_learning,162.57297802,unrot,0,0.748328924179,[],[],images/11.png,4,776,JCH,True,True,0,False,8,7
776,True,1.5,structure_learning,164.078064203,unrot,0,0.807303905487,[],[],images/5.png,5,777,JCH,True,True,1,True,1,9
777,False,1.5,structure_learning,165.583077192,rot,0,0.859000921249,[],[],images/2.png,6,778,JCH,True,True,1,False,2,51
778,True,1.5,structure_learning,167.088258028,unrot,0,0.642492055893,[],[],images/10.png,8,779,JCH,False,True,1,False,3,57
779,True,1.5,structure_learning,168.596367121,unrot,0,0.27957701683,[],[],images/4.png,7,780,JCH,True,True,1,False,4,122
780,False,1.5,structure_learning,170.101547003,unrot,90,0.589205980301,[],[],images/10.png,8,781,JCH,True,False,1,False,5,2
781,False,1.5,structure_learning,171.609799147,rot,0,0.625159978867,[],[],images/6.png,10,782,JCH,False,False,2,True,1,63
782,False,1.5,structure_learning,173.115130186,rot,0,1.00124406815,[],[],images/1.png,9,783,JCH,False,True,1,True,1,63
783,True,1.5,structure_learning,174.620377064,unrot,0,0.652323961258,[],[],images/4.png,7,784,JCH,False,True,1,False,2,4
784,False,1.5,structure_learning,176.125745058,rot,0,0.684895992279,[],[],images/10.png,8,785,JCH,True,True,1,False,3,4
785,True,1.5,structure_learning,177.634327173,unrot,0,0.45528793335,[],[],images/6.png,10,786,JCH,False,True,2,True,1,4
786,True,1.5,structure_learning,179.139579058,unrot,0,0.589745044708,[],[],images/10.png,8,787,JCH,True,True,1,True,1,2
787,True,1.5,structure_learning,180.647971153,unrot,0,0.61613202095,[],[],images/1.png,9,788,JCH,True,True,1,False,2,5
788,False,1.5,structure_learning,182.153292179,rot,0,0.882344007492,[],[],images/2.png,6,789,JCH,True,True,1,False,3,11
789,True,1.5,structure_learning,183.658600092,unrot,0,0.430467128754,[],[],images/4.png,7,790,JCH,False,True,1,False,4,6
790,True,1.5,structure_learning,185.16381216,unrot,0,0.536273956299,[],[],images/1.png,9,791,JCH,True,True,1,False,5,3
791,True,1.5,structure_learning,186.669172049,unrot,0,0.587003946304,[],[],images/4.png,7,792,JCH,True,True,1,False,6,2
792,True,1.5,structure_learning,188.174427986,unrot,0,0.668895959854,[],[],images/2.png,6,793,JCH,True,True,1,False,7,4
793,True,1.5,structure_learning,189.679861069,unrot,0,0.797366142273,[],[],images/1.png,9,794,JCH,True,True,1,False,8,3
794,False,1.5,structure_learning,191.186639071,unrot,90,0.591162919998,[],[],images/10.png,8,795,JCH,True,False,1,False,9,8
795,True,1.5,structure_learning,192.694921017,unrot,0,0.665489912033,[],[],images/4.png,7,796,JCH,False,False,1,False,10,4
796,True,1.5,structure_learning,194.199971199,unrot,0,0.52498292923,[],[],images/2.png,6,797,JCH,True,True,1,False,11,4
797,True,1.5,structure_learning,195.705398083,unrot,0,0.564538955688,[],[],images/10.png,8,798,JCH,True,True,1,False,12,3
798,True,1.5,structure_learning,197.213546991,unrot,0,0.726558923721,[],[],images/1.png,9,799,JCH,True,True,1,False,13,5
799,True,1.5,structure_learning,198.718624115,unrot,0,0.593688011169,[],[],images/2.png,6,800,JCH,True,True,1,False,14,3
800,True,1.5,structure_learning,200.22371006,unrot,0,0.5094871521,[],[],images/5.png,5,801,JCH,True,True,1,False,15,24
801,True,1.5,structure_learning,201.728865147,unrot,0,0.568151950836,[],[],images/2.png,6,802,JCH,True,True,1,False,16,2
802,True,1.5,structure_learning,203.234034061,unrot,0,0.583911895752,[],[],images/10.png,8,803,JCH,True,True,1,False,17,5
803,False,1.5,structure_learning,204.74228406,unrot,90,0.745756149292,[],[],images/4.png,7,804,JCH,True,False,1,False,18,8
804,True,1.5,structure_learning,206.247502089,unrot,0,0.780378103256,[],[],images/6.png,10,805,JCH,False,False,2,True,1,19
805,True,1.5,structure_learning,207.752669096,unrot,0,0.5816218853,[],[],images/10.png,8,806,JCH,True,True,1,True,1,3
806,False,1.5,structure_learning,209.261008024,unrot,90,0.672121047974,[],[],images/4.png,7,807,JCH,True,False,1,False,2,3
807,True,1.5,structure_learning,210.766033173,unrot,0,0.770099878311,[],[],images/1.png,9,808,JCH,False,False,1,False,3,9
808,True,1.5,structure_learning,212.271356106,unrot,0,0.801928043365,[],[],images/10.png,8,809,JCH,True,True,1,False,4,3
809,True,1.5,structure_learning,213.779407978,unrot,0,0.74918794632,[],[],images/6.png,10,810,JCH,True,True,2,True,1,5
810,True,1.5,structure_learning,215.284720182,unrot,0,0.839160203934,[],[],images/1.png,9,811,JCH,True,True,1,True,1,3
811,False,1.5,structure_learning,216.789928198,unrot,90,1.04056096077,[],[],images/6.png,10,812,JCH,True,False,2,True,1,2
812,False,1.5,structure_learning,218.295188189,rot,0,0.981168985367,[],[],images/2.png,6,813,JCH,False,False,1,True,1,11
813,True,1.5,structure_learning,219.800312042,unrot,0,0.711693048477,[],[],images/4.png,7,814,JCH,False,True,1,False,2,7
814,False,1.5,structure_learning,221.30560112,rot,0,0.78396987915,[],[],images/10.png,8,815,JCH,True,True,1,False,3,6
815,True,1.5,structure_learning,222.813894987,unrot,0,0.64991402626,[],[],images/1.png,9,816,JCH,False,True,1,False,4,5
816,True,1.5,structure_learning,224.319380999,unrot,0,0.699806928635,[],[],images/4.png,7,817,JCH,True,True,1,False,5,3
817,False,1.5,structure_learning,225.824674129,unrot,90,0.916839122772,[],[],images/6.png,10,818,JCH,True,False,2,True,1,6
818,True,1.5,structure_learning,227.330000162,rot,90,0.865239858627,[],[],images/1.png,9,819,JCH,False,True,1,True,1,3
819,False,1.5,structure_learning,228.835261106,rot,0,0.7769780159,[],[],images/10.png,8,820,JCH,True,False,1,False,2,5
820,True,1.5,structure_learning,230.343868971,unrot,0,0.920654058456,[],[],images/6.png,10,821,JCH,False,True,2,True,1,3
821,True,1.5,structure_learning,231.849306107,unrot,0,0.586354017258,[],[],images/10.png,8,822,JCH,True,True,1,True,1,2
822,True,1.5,structure_learning,233.357760191,rot,90,0.739772081375,[],[],images/1.png,9,823,JCH,True,False,1,False,2,4
823,False,1.5,structure_learning,234.8641541,rot,0,0.917155981064,[],[],images/2.png,6,824,JCH,True,False,1,False,3,11
824,True,1.5,structure_learning,236.369654179,unrot,0,0.59231710434,[],[],images/4.png,7,825,JCH,False,True,1,False,4,8
825,True,1.5,structure_learning,237.874960184,unrot,0,0.642632007599,[],[],images/2.png,6,826,JCH,True,True,1,False,5,2
826,True,1.5,structure_learning,239.380321026,unrot,0,0.565960168839,[],[],images/1.png,9,827,JCH,True,True,1,False,6,4
827,True,1.5,structure_learning,240.885651112,unrot,0,0.839205026627,[],[],images/2.png,6,828,JCH,True,True,1,False,7,2
828,True,1.5,structure_learning,242.39074707,unrot,0,0.783324956894,[],[],images/10.png,8,829,JCH,True,True,1,False,8,7
829,True,1.5,structure_learning,243.898893118,unrot,0,0.666465044022,[],[],images/2.png,6,830,JCH,True,True,1,False,9,2
830,True,1.5,structure_learning,245.404215097,unrot,0,1.0503180027,[],[],images/5.png,5,831,JCH,True,True,1,False,10,30
831,True,1.5,structure_learning,246.909399986,unrot,0,0.552195072174,[],[],images/2.png,6,832,JCH,True,True,1,False,11,2
832,True,1.5,structure_learning,248.414798021,unrot,0,0.745138883591,[],[],images/1.png,9,833,JCH,True,True,1,False,12,6
833,True,1.5,structure_learning,249.920143127,unrot,0,0.684602022171,[],[],images/4.png,7,834,JCH,True,True,1,False,13,9
834,True,1.5,structure_learning,251.425348997,unrot,0,0.726646184921,[],[],images/2.png,6,835,JCH,True,True,1,False,14,3
835,False,1.5,structure_learning,252.930458069,unrot,90,0.800785064697,[],[],images/5.png,5,836,JCH,True,False,1,False,15,5
836,True,1.5,structure_learning,254.435616016,unrot,0,0.787267923355,[],[],images/2.png,6,837,JCH,False,False,1,False,16,2
837,False,1.5,structure_learning,255.940858126,rot,0,1.00671696663,[],[],images/5.png,5,838,JCH,True,True,1,False,17,2
838,True,1.5,structure_learning,257.445877075,unrot,0,0.586600065231,[],[],images/2.png,6,839,JCH,False,True,1,False,18,2
839,True,1.5,structure_learning,258.951026201,unrot,0,0.692816972733,[],[],images/1.png,9,840,JCH,True,True,1,False,19,7
840,True,1.5,structure_learning,260.45603919,unrot,0,0.853994846344,[],[],images/2.png,6,841,JCH,True,True,1,False,20,2
841,True,1.5,structure_learning,261.961410046,unrot,0,0.702030897141,[],[],images/10.png,8,842,JCH,True,True,1,False,21,13
842,False,1.5,structure_learning,263.46997118,unrot,90,0.665010929108,[],[],images/2.png,6,843,JCH,True,False,1,False,22,2
843,True,1.5,structure_learning,264.975176096,unrot,0,0.659499168396,[],[],images/1.png,9,844,JCH,False,False,1,False,23,4
844,True,1.5,structure_learning,266.480408192,unrot,0,0.638213157654,[],[],images/4.png,7,845,JCH,True,True,1,False,24,11
845,False,1.5,structure_learning,267.985713005,rot,0,0.809820890427,[],[],images/2.png,6,846,JCH,True,True,1,False,25,3
846,True,1.5,structure_learning,269.490754128,unrot,0,0.672451019287,[],[],images/10.png,8,847,JCH,False,True,1,False,26,5
847,True,1.5,structure_learning,270.998805046,unrot,0,0.556269168854,[],[],images/4.png,7,848,JCH,True,True,1,False,27,3
848,True,1.5,structure_learning,272.504029989,unrot,0,0.851619958878,[],[],images/2.png,6,849,JCH,True,True,1,False,28,3
849,True,1.5,structure_learning,274.010372162,unrot,0,0.647553920746,[],[],images/4.png,7,850,JCH,True,True,1,False,29,2
850,True,1.5,structure_learning,275.515467167,unrot,0,0.716640233994,[],[],images/10.png,8,851,JCH,True,True,1,False,30,4
851,False,1.5,structure_learning,277.025822163,unrot,90,0.941875934601,[],[],images/2.png,6,852,JCH,True,False,1,False,31,3
852,True,1.5,structure_learning,278.531228065,unrot,0,0.960770130157,[],[],images/5.png,5,853,JCH,False,False,1,False,32,15
853,False,1.5,structure_learning,280.0364182,unrot,90,1.07490897179,[],[],images/11.png,4,854,JCH,True,False,0,True,1,78
854,True,1.5,structure_learning,281.541704178,unrot,0,0.664334058762,[],[],images/5.png,5,855,JCH,False,False,1,True,1,2
855,True,1.5,structure_learning,283.046833038,unrot,0,1.05621600151,[],[],images/2.png,6,856,JCH,True,True,1,False,2,4
856,False,1.5,structure_learning,284.552185059,unrot,90,1.0961458683,[],[],images/10.png,8,857,JCH,True,False,1,False,3,6
857,True,1.5,structure_learning,286.060297012,unrot,0,1.05923390388,[],[],images/6.png,10,858,JCH,False,False,2,True,1,37
858,True,1.5,structure_learning,287.565600157,unrot,0,1.00648188591,[],[],images/9.png,0,859,JCH,True,True,0,True,1,85
859,True,1.5,structure_learning,289.070590973,unrot,0,0.850071907043,[],[],images/3.png,2,860,JCH,True,True,0,False,2,88
860,True,1.5,structure_learning,290.575992107,unrot,0,1.16262698174,[],[],images/9.png,0,861,JCH,True,True,0,False,3,2
861,True,1.5,structure_learning,292.080972195,unrot,0,1.06974601746,[],[],images/8.png,1,862,JCH,True,True,0,False,4,87
862,True,1.5,structure_learning,293.585924149,unrot,0,0.873573064804,[],[],images/9.png,0,863,JCH,True,True,0,False,5,2
863,True,1.5,structure_learning,295.091030121,rot,90,0.726367950439,[],[],images/8.png,1,864,JCH,True,False,0,False,6,2
864,False,1.5,structure_learning,296.596598148,unrot,90,1.09306120872,[],[],images/11.png,4,865,JCH,True,True,0,False,7,11
865,True,1.5,structure_learning,298.101907969,unrot,0,0.944704055786,[],[],images/8.png,1,866,JCH,False,False,0,False,8,2
