,correct,duration,exp_stage,onset,response,rotation,rt,secondary_responses,secondary_rts,stim_file,stim_index,trialnum,subjid,correct_shift,congruent_rot,community,community_cross,steps_within_community,steps_since_seen
0,True,1.5,structure_learning,2.03350957346,unrot,0,0.769460087526,[],[],images/7.png,4,1,CCT,,False,0,,1,0
1,False,1.5,structure_learning,3.55084892444,rot,0,0.643084110547,[],[],images/3.png,5,2,CCT,True,True,2,True,1,0
2,False,1.5,structure_learning,5.06832963452,rot,0,0.592415034072,[],[],images/7.png,4,3,CCT,False,True,0,True,1,2
3,True,1.5,structure_learning,6.5850410338,unrot,0,0.422494853003,[],[],images/6.png,2,4,CCT,False,True,0,False,2,0
4,True,1.5,structure_learning,8.10188259542,unrot,0,0.00443345090025,"['right', 'left']","[0.5867522721528076, 1.1900552233855706]",images/11.png,0,5,CCT,True,True,0,False,3,0
5,False,1.5,structure_learning,9.61854920766,unrot,90,0.484916796384,['left'],[1.4305443911871407],images/10.png,1,6,CCT,True,False,0,False,4,0
6,True,1.5,structure_learning,11.1355400594,unrot,0,0.624946757074,['left'],[1.392928872111952],images/11.png,0,7,CCT,False,False,0,False,5,2
7,False,1.5,structure_learning,12.6527935686,rot,0,0.85377356509,[],[],images/10.png,1,8,CCT,True,True,0,False,6,2
8,True,1.5,structure_learning,14.1698488017,unrot,0,0.0452321158664,['right'],[0.7932686005078722],images/6.png,2,9,CCT,False,True,0,False,7,5
9,False,1.5,structure_learning,15.6866348461,rot,0,0.434406340733,[],[],images/11.png,0,10,CCT,True,True,0,False,8,3
10,True,1.5,structure_learning,17.2031969552,unrot,0,0.847644271445,[],[],images/2.png,3,11,CCT,False,True,0,False,9,0
11,False,1.5,structure_learning,18.7203716205,unrot,90,0.449838743312,[],[],images/7.png,4,12,CCT,True,False,0,False,10,9
12,True,1.5,structure_learning,20.2369341962,unrot,0,0.861764786823,[],[],images/6.png,2,13,CCT,False,False,0,False,11,4
13,False,1.5,structure_learning,21.7536315995,rot,0,0.761402151751,[],[],images/7.png,4,14,CCT,True,True,0,False,12,2
14,True,1.5,structure_learning,23.2704698954,unrot,0,0.7430371308,[],[],images/2.png,3,15,CCT,False,True,0,False,13,4
15,True,1.5,structure_learning,24.7872536071,unrot,0,0.556761280866,[],[],images/7.png,4,16,CCT,True,True,0,False,14,2
16,True,1.5,structure_learning,26.3039024911,unrot,0,0.631349438336,[],[],images/2.png,3,17,CCT,True,True,0,False,15,2
17,False,1.5,structure_learning,27.820504722,unrot,90,0.822302268702,[],[],images/11.png,0,18,CCT,True,False,0,False,16,8
18,True,1.5,structure_learning,29.3372021253,unrot,0,0.49639720883,[],[],images/9.png,10,19,CCT,False,False,1,True,1,0
19,True,1.5,structure_learning,30.8538449444,rot,90,1.00953730784,[],[],images/11.png,0,20,CCT,True,False,0,True,1,2
20,True,1.5,structure_learning,32.3708525914,unrot,0,0.615309144923,[],[],images/10.png,1,21,CCT,True,False,0,False,2,13
21,True,1.5,structure_learning,33.8879012931,rot,90,0.885012995219,[],[],images/11.png,0,22,CCT,True,False,0,False,3,2
22,True,1.5,structure_learning,35.4045669723,unrot,0,0.927101620415,[],[],images/2.png,3,23,CCT,True,False,0,False,4,6
23,True,1.5,structure_learning,36.9221153294,unrot,0,0.946118852706,[],[],images/6.png,2,24,CCT,True,True,0,False,5,11
24,True,1.5,structure_learning,38.4393590414,rot,90,0.830460975325,[],[],images/10.png,1,25,CCT,True,False,0,False,6,4
25,False,1.5,structure_learning,39.9564119419,rot,0,1.1993191436,[],[],images/11.png,0,26,CCT,True,False,0,False,7,4
26,True,1.5,structure_learning,41.4730939497,unrot,0,0.851314009924,[],[],images/6.png,2,27,CCT,False,True,0,False,8,3
27,False,1.5,structure_learning,42.9897974179,rot,0,0.959130888717,[],[],images/2.png,3,28,CCT,True,True,0,False,9,5
28,True,1.5,structure_learning,44.5066058558,unrot,0,0.579510300304,[],[],images/10.png,1,29,CCT,False,True,0,False,10,4
29,True,1.5,structure_learning,46.0231852266,unrot,0,0.653428518242,[],[],images/7.png,4,30,CCT,True,True,0,False,11,14
30,True,1.5,structure_learning,47.5402106017,unrot,0,0.782239324239,[],[],images/3.png,5,31,CCT,True,True,2,True,1,29
31,True,1.5,structure_learning,49.0572443744,unrot,0,0.662210044713,[],[],images/5.png,6,32,CCT,True,True,1,True,1,0
32,True,1.5,structure_learning,50.5745226098,unrot,0,0.516825699568,[],[],images/3.png,5,33,CCT,True,True,2,True,1,2
33,True,1.5,structure_learning,52.0910973152,unrot,0,0.611136951775,[],[],images/7.png,4,34,CCT,True,True,0,True,1,4
34,True,1.5,structure_learning,53.6077755908,unrot,0,0.650249104627,[],[],images/10.png,1,35,CCT,True,True,0,False,2,6
35,True,1.5,structure_learning,55.1250179032,unrot,0,0.665227105317,[],[],images/7.png,4,36,CCT,True,True,0,False,3,2
36,True,1.5,structure_learning,56.6417017771,unrot,0,0.589923754742,[],[],images/3.png,5,37,CCT,True,True,2,True,1,4
37,True,1.5,structure_learning,58.158202304,unrot,0,1.20227135631,[],[],images/5.png,6,38,CCT,True,True,1,True,1,6
38,False,1.5,structure_learning,59.6753587745,rot,0,0.822601315536,[],[],images/1.png,7,39,CCT,True,True,1,False,2,0
39,True,1.5,structure_learning,61.1925968881,unrot,0,0.442650422658,[],[],images/8.png,9,40,CCT,False,True,1,False,3,0
40,True,1.5,structure_learning,62.709861594,unrot,0,0.587195943779,[],[],images/5.png,6,41,CCT,True,True,1,False,4,3
41,True,1.5,structure_learning,64.226420904,unrot,0,0.517318823579,[],[],images/8.png,9,42,CCT,True,True,1,False,5,2
42,True,1.5,structure_learning,65.7431560964,unrot,0,0.486949475075,[],[],images/1.png,7,43,CCT,True,True,1,False,6,4
43,True,1.5,structure_learning,67.2599038851,unrot,0,0.645904761273,[],[],images/9.png,10,44,CCT,True,True,1,False,7,25
44,True,1.5,structure_learning,68.7770011062,unrot,0,0.744977902708,[],[],images/5.png,6,45,CCT,True,True,1,False,8,4
45,True,1.5,structure_learning,70.2940246151,unrot,0,0.519350102637,[],[],images/3.png,5,46,CCT,True,True,2,True,1,9
46,True,1.5,structure_learning,71.8111666232,unrot,0,0.54429368733,[],[],images/7.png,4,47,CCT,True,True,0,True,1,11
47,True,1.5,structure_learning,73.3277553246,unrot,0,0.410736854188,[],[],images/3.png,5,48,CCT,True,True,2,True,1,2
48,True,1.5,structure_learning,74.8444797868,unrot,0,0.458611405658,[],[],images/7.png,4,49,CCT,True,True,0,True,1,2
49,True,1.5,structure_learning,76.3611804559,unrot,0,0.52326896906,[],[],images/10.png,1,50,CCT,True,True,0,False,2,15
50,True,1.5,structure_learning,77.8778456685,unrot,0,0.313368886156,[],[],images/11.png,0,51,CCT,True,True,0,False,3,25
51,True,1.5,structure_learning,79.3947894006,unrot,0,0.487369820155,[],[],images/9.png,10,52,CCT,True,True,1,True,1,8
52,False,1.5,structure_learning,80.9117709217,unrot,90,0.369387215265,[],[],images/4.png,8,53,CCT,True,False,1,False,2,0
53,False,1.5,structure_learning,82.4282569862,unrot,90,0.815939242631,[],[],images/5.png,6,54,CCT,False,True,1,False,3,9
54,False,1.5,structure_learning,83.9448377566,rot,0,0.391615118802,[],[],images/1.png,7,55,CCT,False,False,1,False,4,12
55,True,1.5,structure_learning,85.4615202309,unrot,0,0.50675981128,[],[],images/9.png,10,56,CCT,False,True,1,False,5,4
56,True,1.5,structure_learning,86.9782442265,unrot,0,1.19400768005,[],[],images/8.png,9,57,CCT,True,True,1,False,6,15
57,True,1.5,structure_learning,88.4949388307,unrot,0,1.1237932574,[],[],images/5.png,6,58,CCT,True,True,1,False,7,4
58,False,1.5,structure_learning,90.0116782219,unrot,90,1.27332087071,[],[],images/4.png,8,59,CCT,True,False,1,False,8,6
59,True,1.5,structure_learning,91.5282142052,unrot,0,0.779232993867,[],[],images/9.png,10,60,CCT,False,False,1,False,9,4
60,True,1.5,structure_learning,93.0449344686,unrot,0,1.00875446762,[],[],images/11.png,0,61,CCT,True,True,0,True,1,10
61,True,1.5,structure_learning,94.5616183425,unrot,0,1.32501305122,[],[],images/6.png,2,62,CCT,True,True,0,False,2,35
62,True,1.5,structure_learning,96.0786292552,unrot,0,0.989080358675,[],[],images/11.png,0,63,CCT,True,True,0,False,3,2
63,True,1.5,structure_learning,97.5954013036,unrot,0,0.659226574382,[],[],images/10.png,1,64,CCT,True,True,0,False,4,14
64,True,1.5,structure_learning,99.1128680177,unrot,0,0.674249362113,[],[],images/2.png,3,65,CCT,True,True,0,False,5,37
65,False,1.5,structure_learning,100.629623271,rot,0,0.769109255663,[],[],images/11.png,0,66,CCT,True,True,0,False,6,3
66,True,1.5,structure_learning,102.146157855,unrot,0,0.483764463075,[],[],images/10.png,1,67,CCT,False,True,0,False,7,3
67,True,1.5,structure_learning,103.663359112,unrot,0,0.519684139348,[],[],images/2.png,3,68,CCT,True,True,0,False,8,3
68,True,1.5,structure_learning,105.180474062,unrot,0,0.717369955441,[],[],images/11.png,0,69,CCT,True,True,0,False,9,3
69,True,1.5,structure_learning,106.697468646,unrot,0,0.687131702376,[],[],images/6.png,2,70,CCT,True,True,0,False,10,8
70,True,1.5,structure_learning,108.214585927,unrot,0,0.483398235665,[],[],images/10.png,1,71,CCT,True,True,0,False,11,4
71,False,1.5,structure_learning,109.73179465,unrot,90,0.448135902552,[],[],images/7.png,4,72,CCT,True,False,0,False,12,23
72,True,1.5,structure_learning,111.248451465,unrot,0,0.547834663012,[],[],images/10.png,1,73,CCT,False,False,0,False,13,2
73,True,1.5,structure_learning,112.764893209,unrot,0,0.686915231665,[],[],images/2.png,3,74,CCT,True,True,0,False,14,6
74,True,1.5,structure_learning,114.282003026,unrot,0,0.606854657177,[],[],images/6.png,2,75,CCT,True,True,0,False,15,5
75,True,1.5,structure_learning,115.798728421,unrot,0,0.547267360467,[],[],images/7.png,4,76,CCT,True,True,0,False,16,4
76,True,1.5,structure_learning,117.315402031,unrot,0,0.557246007287,[],[],images/10.png,1,77,CCT,True,True,0,False,17,4
77,True,1.5,structure_learning,118.832395216,unrot,0,0.626059435192,[],[],images/11.png,0,78,CCT,True,True,0,False,18,9
78,True,1.5,structure_learning,120.349737832,unrot,0,0.720927259768,[],[],images/6.png,2,79,CCT,True,True,0,False,19,4
79,True,1.5,structure_learning,121.866276149,unrot,0,0.671140861319,[],[],images/11.png,0,80,CCT,True,True,0,False,20,2
80,True,1.5,structure_learning,123.383134039,unrot,0,0.627889639116,[],[],images/9.png,10,81,CCT,True,True,1,True,1,21
81,True,1.5,structure_learning,124.899788521,unrot,0,1.35556294749,[],[],images/8.png,9,82,CCT,True,True,1,False,2,25
82,True,1.5,structure_learning,126.416307709,unrot,0,0.918151675985,[],[],images/4.png,8,83,CCT,True,True,1,False,3,24
83,True,1.5,structure_learning,127.933480042,unrot,0,0.502092628012,[],[],images/9.png,10,84,CCT,True,True,1,False,4,3
84,True,1.5,structure_learning,129.450297811,unrot,0,0.811520254269,[],[],images/5.png,6,85,CCT,True,True,1,False,5,27
85,False,1.5,structure_learning,130.966935964,rot,0,0.741562890558,[],[],images/1.png,7,86,CCT,True,True,1,False,6,31
86,True,1.5,structure_learning,132.483563388,unrot,0,0.492218484287,[],[],images/5.png,6,87,CCT,False,True,1,False,7,2
87,False,1.5,structure_learning,134.000276187,unrot,90,0.506792468514,[],[],images/8.png,9,88,CCT,True,False,1,False,8,6
88,True,1.5,structure_learning,135.517219452,unrot,0,1.0350897164,[],[],images/4.png,8,89,CCT,False,False,1,False,9,6
89,True,1.5,structure_learning,137.034066612,rot,90,0.702136295382,[],[],images/8.png,9,90,CCT,True,False,1,False,10,2
90,True,1.5,structure_learning,138.550516287,rot,90,0.665631588286,[],[],images/9.png,10,91,CCT,True,True,1,False,11,7
91,False,1.5,structure_learning,140.067330324,unrot,90,0.875521407492,[],[],images/4.png,8,92,CCT,True,True,1,False,12,3
92,True,1.5,structure_learning,141.583854177,unrot,0,1.09500451834,[],[],images/8.png,9,93,CCT,False,False,1,False,13,3
93,True,1.5,structure_learning,143.10062156,unrot,0,0.591179658077,[],[],images/5.png,6,94,CCT,True,True,1,False,14,7
94,True,1.5,structure_learning,144.617170606,unrot,0,0.662778280355,[],[],images/8.png,9,95,CCT,True,True,1,False,15,2
95,False,1.5,structure_learning,146.133924927,rot,0,0.676505042968,[],[],images/1.png,7,96,CCT,True,True,1,False,16,10
96,True,1.5,structure_learning,147.650649855,unrot,0,0.517249776894,[],[],images/9.png,10,97,CCT,False,True,1,False,17,6
97,True,1.5,structure_learning,149.167462492,unrot,0,0.723654137662,[],[],images/11.png,0,98,CCT,True,True,0,True,1,18
98,True,1.5,structure_learning,150.684121173,unrot,0,0.637664411624,[],[],images/9.png,10,99,CCT,True,True,1,True,1,2
99,True,1.5,structure_learning,152.200557319,unrot,0,0.633787999599,[],[],images/4.png,8,100,CCT,True,True,1,False,2,8
100,False,1.5,structure_learning,153.717248657,unrot,90,0.493497714226,[],[],images/9.png,10,101,CCT,True,False,1,False,3,2
101,True,1.5,structure_learning,155.233972653,unrot,0,0.592782661057,[],[],images/5.png,6,102,CCT,False,False,1,False,4,8
102,True,1.5,structure_learning,156.750712511,unrot,0,0.523282498471,[],[],images/3.png,5,103,CCT,True,True,2,True,1,55
103,True,1.5,structure_learning,158.267314275,unrot,0,1.14705872748,[],[],images/7.png,4,104,CCT,True,True,0,True,1,28
104,False,1.5,structure_learning,159.784082125,unrot,90,0.622527790139,[],[],images/3.png,5,105,CCT,True,False,2,True,1,2
105,True,1.5,structure_learning,161.300975005,unrot,0,0.908185158973,[],[],images/7.png,4,106,CCT,False,False,0,True,1,2
106,True,1.5,structure_learning,162.817538047,rot,90,0.72755247663,[],[],images/3.png,5,107,CCT,True,False,2,True,1,2
107,True,1.5,structure_learning,164.334770562,unrot,0,0.584294116503,[],[],images/7.png,4,108,CCT,True,False,0,True,1,2
108,False,1.5,structure_learning,165.851840258,unrot,90,0.737351975346,[],[],images/6.png,2,109,CCT,True,False,0,False,2,30
109,True,1.5,structure_learning,167.368581982,unrot,0,0.936951971002,[],[],images/2.png,3,110,CCT,False,False,0,False,3,36
110,False,1.5,structure_learning,168.885243928,rot,0,0.547344804741,[],[],images/6.png,2,111,CCT,True,True,0,False,4,2
111,True,1.5,structure_learning,170.402269304,unrot,0,0.547524419439,[],[],images/7.png,4,112,CCT,False,True,0,False,5,4
112,True,1.5,structure_learning,171.919085206,unrot,0,0.557594973041,[],[],images/10.png,1,113,CCT,True,True,0,False,6,36
113,True,1.5,structure_learning,173.435702832,unrot,0,1.00672085589,[],[],images/6.png,2,114,CCT,True,True,0,False,7,3
114,False,1.5,structure_learning,174.952612508,unrot,90,0.637285121309,[],[],images/2.png,3,115,CCT,True,False,0,False,8,5
115,True,1.5,structure_learning,176.469685002,unrot,0,0.697374406154,[],[],images/11.png,0,116,CCT,False,False,0,False,9,18
116,True,1.5,structure_learning,177.986890459,rot,90,0.584096773615,[],[],images/6.png,2,117,CCT,True,False,0,False,10,3
117,True,1.5,structure_learning,179.503519749,unrot,0,0.487517710717,[],[],images/10.png,1,118,CCT,True,False,0,False,11,5
118,True,1.5,structure_learning,181.020289931,unrot,0,0.553509554826,[],[],images/7.png,4,119,CCT,True,True,0,False,12,7
119,True,1.5,structure_learning,182.537218267,unrot,0,0.541491697833,[],[],images/2.png,3,120,CCT,True,True,0,False,13,5
120,True,1.5,structure_learning,184.054586543,unrot,0,0.586573590466,[],[],images/6.png,2,121,CCT,True,True,0,False,14,4
121,False,1.5,structure_learning,185.571298876,unrot,90,0.51728989862,[],[],images/11.png,0,122,CCT,True,False,0,False,15,6
122,False,1.5,structure_learning,187.08788851,unrot,90,0.766696820152,[],[],images/6.png,2,123,CCT,False,True,0,False,16,2
123,False,1.5,structure_learning,188.604895691,rot,0,0.531492057053,[],[],images/11.png,0,124,CCT,False,False,0,False,17,2
124,True,1.5,structure_learning,190.122167394,rot,90,0.815774556948,[],[],images/10.png,1,125,CCT,False,False,0,False,18,7
125,True,1.5,structure_learning,191.639197901,unrot,0,0.605934656633,[],[],images/7.png,4,126,CCT,True,False,0,False,19,7
126,True,1.5,structure_learning,193.156226076,unrot,0,0.590967386175,[],[],images/10.png,1,127,CCT,True,True,0,False,20,2
127,True,1.5,structure_learning,194.673569625,unrot,0,1.41362188631,[],[],images/11.png,0,128,CCT,True,True,0,False,21,4
128,True,1.5,structure_learning,196.190295021,unrot,0,0.984786400804,[],[],images/2.png,3,129,CCT,True,True,0,False,22,9
129,False,1.5,structure_learning,197.706827738,rot,0,0.939371871034,[],[],images/6.png,2,130,CCT,True,True,0,False,23,7
130,True,1.5,structure_learning,199.223749077,unrot,0,0.535612465173,[],[],images/10.png,1,131,CCT,False,True,0,False,24,4
131,True,1.5,structure_learning,200.740454411,unrot,0,1.20076445886,[],[],images/6.png,2,132,CCT,True,True,0,False,25,2
132,True,1.5,structure_learning,202.257049178,unrot,0,0.595077064063,[],[],images/7.png,4,133,CCT,True,True,0,False,26,7
133,True,1.5,structure_learning,203.774237839,unrot,0,0.541423584189,[],[],images/10.png,1,134,CCT,True,True,0,False,27,3
134,True,1.5,structure_learning,205.291250151,rot,90,1.4281627468,[],[],images/6.png,2,135,CCT,True,False,0,False,28,3
135,True,1.5,structure_learning,206.807858913,unrot,0,0.85995044501,[],[],images/2.png,3,136,CCT,True,False,0,False,29,7
136,False,1.5,structure_learning,208.325360617,rot,0,0.5186358426,[],[],images/6.png,2,137,CCT,True,True,0,False,30,2
137,True,1.5,structure_learning,209.842107473,unrot,0,0.524070470536,[],[],images/7.png,4,138,CCT,False,True,0,False,31,5
138,False,1.5,structure_learning,211.358808142,unrot,90,0.543981111085,[],[],images/2.png,3,139,CCT,True,False,0,False,32,3
139,True,1.5,structure_learning,212.875335728,unrot,0,0.455100287974,[],[],images/7.png,4,140,CCT,False,False,0,False,33,2
140,True,1.5,structure_learning,214.391999541,unrot,0,0.613119711576,[],[],images/10.png,1,141,CCT,True,True,0,False,34,7
141,True,1.5,structure_learning,215.908934409,unrot,0,0.682503241231,[],[],images/7.png,4,142,CCT,True,True,0,False,35,2
142,False,1.5,structure_learning,217.42634234,rot,0,1.23057816809,[],[],images/3.png,5,143,CCT,True,True,2,True,1,36
143,True,1.5,structure_learning,218.94337238,unrot,0,0.536804453703,[],[],images/7.png,4,144,CCT,False,True,0,True,1,2
144,True,1.5,structure_learning,220.460175687,unrot,0,0.531873680011,[],[],images/2.png,3,145,CCT,True,True,0,False,2,6
145,True,1.5,structure_learning,221.976765788,unrot,0,1.03134533283,[],[],images/6.png,2,146,CCT,True,True,0,False,3,9
146,True,1.5,structure_learning,223.493419803,unrot,0,1.1022073015,[],[],images/2.png,3,147,CCT,True,True,0,False,4,2
147,True,1.5,structure_learning,225.010192785,unrot,0,1.07038050791,[],[],images/6.png,2,148,CCT,True,True,0,False,5,2
148,True,1.5,structure_learning,226.527030614,unrot,0,0.496505444171,[],[],images/2.png,3,149,CCT,True,True,0,False,6,2
149,True,1.5,structure_learning,228.043862379,unrot,0,0.551157301903,[],[],images/7.png,4,150,CCT,True,True,0,False,7,6
150,True,1.5,structure_learning,229.560940005,unrot,0,0.617286306311,[],[],images/3.png,5,151,CCT,True,True,2,True,1,8
151,True,1.5,structure_learning,231.077628078,unrot,0,0.531481326849,[],[],images/7.png,4,152,CCT,True,True,0,True,1,2
152,True,1.5,structure_learning,232.594253169,unrot,0,0.817605227407,[],[],images/3.png,5,153,CCT,True,True,2,True,1,2
153,False,1.5,structure_learning,234.110961303,unrot,90,0.541634456546,[],[],images/7.png,4,154,CCT,True,False,0,True,1,2
154,True,1.5,structure_learning,235.627879842,unrot,0,1.03595140047,[],[],images/6.png,2,155,CCT,False,False,0,False,2,7
155,True,1.5,structure_learning,237.144545055,unrot,0,0.681821171864,[],[],images/2.png,3,156,CCT,True,True,0,False,3,7
156,False,1.5,structure_learning,238.661195338,rot,0,0.851389588061,[],[],images/11.png,0,157,CCT,True,True,0,False,4,29
157,True,1.5,structure_learning,240.177900673,unrot,0,0.941253859957,[],[],images/6.png,2,158,CCT,False,True,0,False,5,3
158,True,1.5,structure_learning,241.694727305,unrot,0,0.813559930917,[],[],images/2.png,3,159,CCT,True,True,0,False,6,3
159,True,1.5,structure_learning,243.211356595,rot,90,0.631810371648,[],[],images/10.png,1,160,CCT,True,False,0,False,7,19
160,False,1.5,structure_learning,244.728052132,rot,0,1.13645772732,[],[],images/6.png,2,161,CCT,True,False,0,False,8,3
161,False,1.5,structure_learning,246.245842619,unrot,90,0.458477511071,[],[],images/10.png,1,162,CCT,False,False,0,False,9,2
162,False,1.5,structure_learning,247.76189061,rot,0,0.772945079429,[],[],images/11.png,0,163,CCT,False,False,0,False,10,6
163,True,1.5,structure_learning,249.278613673,unrot,0,0.497566803853,[],[],images/10.png,1,164,CCT,False,True,0,False,11,2
164,True,1.5,structure_learning,250.795490225,unrot,0,0.736496822676,[],[],images/6.png,2,165,CCT,True,True,0,False,12,4
165,True,1.5,structure_learning,252.31272274,unrot,0,0.867276859062,[],[],images/2.png,3,166,CCT,True,True,0,False,13,7
166,True,1.5,structure_learning,253.829438338,unrot,0,0.488206311536,[],[],images/10.png,1,167,CCT,True,True,0,False,14,3
167,True,1.5,structure_learning,255.346011177,unrot,0,0.467288895568,[],[],images/7.png,4,168,CCT,True,True,0,False,15,14
168,True,1.5,structure_learning,256.863710691,unrot,0,0.761706330435,[],[],images/6.png,2,169,CCT,True,True,0,False,16,4
169,True,1.5,structure_learning,258.380344646,unrot,0,0.587376025011,[],[],images/10.png,1,170,CCT,True,True,0,False,17,3
170,True,1.5,structure_learning,259.896864767,unrot,0,0.651683223114,[],[],images/2.png,3,171,CCT,True,True,0,False,18,5
171,False,1.5,structure_learning,261.413878012,rot,0,0.94600268628,[],[],images/11.png,0,172,CCT,True,True,0,False,19,9
172,True,1.5,structure_learning,262.930942109,unrot,0,0.725670021173,[],[],images/6.png,2,173,CCT,False,True,0,False,20,4
173,True,1.5,structure_learning,264.447681501,unrot,0,0.680563402362,[],[],images/11.png,0,174,CCT,True,True,0,False,21,2
174,True,1.5,structure_learning,265.96438077,unrot,0,0.505709648394,[],[],images/2.png,3,175,CCT,True,True,0,False,22,4
175,True,1.5,structure_learning,267.481136956,unrot,0,0.520617202797,[],[],images/7.png,4,176,CCT,True,True,0,False,23,8
176,True,1.5,structure_learning,268.997758315,unrot,0,0.805222076102,[],[],images/2.png,3,177,CCT,True,True,0,False,24,2
177,True,1.5,structure_learning,270.514657727,unrot,0,0.490571627306,[],[],images/10.png,1,178,CCT,True,True,0,False,25,8
178,True,1.5,structure_learning,272.031903771,unrot,0,0.510971193056,[],[],images/6.png,2,179,CCT,True,True,0,False,26,6
179,True,1.5,structure_learning,273.5486287,unrot,0,0.491420715029,[],[],images/10.png,1,180,CCT,True,True,0,False,27,2
180,True,1.5,structure_learning,275.065329836,unrot,0,0.476400726475,[],[],images/2.png,3,181,CCT,True,True,0,False,28,4
181,True,1.5,structure_learning,276.581996914,unrot,0,0.420776616695,[],[],images/6.png,2,182,CCT,True,True,0,False,29,3
182,True,1.5,structure_learning,278.099323669,unrot,0,0.517446186714,[],[],images/10.png,1,183,CCT,True,True,0,False,30,3
183,True,1.5,structure_learning,279.615945028,unrot,0,0.506017559324,[],[],images/7.png,4,184,CCT,True,True,0,False,31,8
184,True,1.5,structure_learning,281.132751599,unrot,0,0.450784403074,[],[],images/3.png,5,185,CCT,True,True,2,True,1,32
185,True,1.5,structure_learning,282.649589895,unrot,0,1.31472416079,[],[],images/5.png,6,186,CCT,True,True,1,True,1,84
186,True,1.5,structure_learning,284.165989185,unrot,0,0.566238406085,[],[],images/3.png,5,187,CCT,True,True,2,True,1,2
187,True,1.5,structure_learning,285.682574621,unrot,0,0.760336126754,[],[],images/7.png,4,188,CCT,True,True,0,True,1,4
188,True,1.5,structure_learning,287.199604194,unrot,0,0.570769362123,[],[],images/3.png,5,189,CCT,True,True,2,True,1,2
189,True,1.5,structure_learning,288.716309529,unrot,0,0.525545177312,[],[],images/7.png,4,190,CCT,True,True,0,True,1,2
190,False,1.5,structure_learning,290.233822896,-1,0,-1.0,[],[],images/2.png,3,191,CCT,True,True,0,False,2,10
191,False,1.5,structure_learning,292.251366355,rot,0,1.13871247511,[],[],images/11.png,0,192,CCT,False,True,0,False,3,18
192,True,1.5,structure_learning,293.767104102,unrot,0,0.539770195814,[],[],images/2.png,3,193,CCT,False,True,0,False,4,2
193,True,1.5,structure_learning,295.28396106,rot,90,0.704508609138,[],[],images/6.png,2,194,CCT,True,False,0,False,5,12
194,True,1.5,structure_learning,296.800736374,unrot,0,0.616319186083,[],[],images/2.png,3,195,CCT,True,False,0,False,6,2
195,True,1.5,structure_learning,298.317657712,unrot,0,0.536280072061,[],[],images/7.png,4,196,CCT,True,True,0,False,7,6
196,True,1.5,structure_learning,299.834180166,unrot,0,0.576466647413,[],[],images/3.png,5,197,CCT,True,True,2,True,1,8
197,True,1.5,structure_learning,301.35086544,unrot,0,0.544614194601,[],[],images/7.png,4,198,CCT,True,True,0,True,1,2
198,True,1.5,structure_learning,302.867641687,unrot,0,0.514932047314,[],[],images/10.png,1,199,CCT,True,True,0,False,2,16
199,True,1.5,structure_learning,304.384898928,unrot,0,0.854840989661,[],[],images/11.png,0,200,CCT,True,True,0,False,3,8
200,True,1.5,structure_learning,305.90160193,unrot,0,0.725303793763,[],[],images/9.png,10,201,CCT,True,True,1,True,1,100
201,False,1.5,structure_learning,307.418301199,unrot,90,0.645385511481,[],[],images/4.png,8,202,CCT,True,False,1,False,2,102
202,True,1.5,structure_learning,308.935269191,unrot,0,0.940042277129,[],[],images/5.png,6,203,CCT,False,False,1,False,3,17
203,False,1.5,structure_learning,310.452579617,rot,0,0.930465314072,[],[],images/4.png,8,204,CCT,True,True,1,False,4,2
204,True,1.5,structure_learning,311.969358664,rot,90,0.93605109831,[],[],images/8.png,9,205,CCT,False,False,1,False,5,110
205,False,1.5,structure_learning,313.48603274,rot,0,0.891125960305,[],[],images/4.png,8,206,CCT,True,False,1,False,6,2
206,True,1.5,structure_learning,315.002954545,unrot,0,1.19603009502,[],[],images/8.png,9,207,CCT,False,True,1,False,7,2
207,True,1.5,structure_learning,316.519686472,unrot,0,0.56133749045,[],[],images/9.png,10,208,CCT,True,True,1,False,8,7
208,True,1.5,structure_learning,318.036275173,rot,90,0.889655918872,[],[],images/11.png,0,209,CCT,True,False,0,True,1,9
209,True,1.5,structure_learning,319.553002435,unrot,0,0.940577855508,[],[],images/6.png,2,210,CCT,True,False,0,False,2,16
210,False,1.5,structure_learning,321.069806207,unrot,90,0.91974581487,[],[],images/2.png,3,211,CCT,True,False,0,False,3,16
211,False,1.5,structure_learning,322.586793327,rot,0,0.715660116723,[],[],images/11.png,0,212,CCT,False,False,0,False,4,3
212,True,1.5,structure_learning,324.103309249,unrot,0,0.565979014471,[],[],images/10.png,1,213,CCT,False,True,0,False,5,14
213,True,1.5,structure_learning,325.620066835,unrot,0,0.555987304746,[],[],images/7.png,4,214,CCT,True,True,0,False,6,16
214,True,1.5,structure_learning,327.136708721,rot,90,0.751523809216,[],[],images/10.png,1,215,CCT,True,False,0,False,7,2
215,True,1.5,structure_learning,328.653255435,rot,90,1.05579206123,[],[],images/2.png,3,216,CCT,True,True,0,False,8,5
216,True,1.5,structure_learning,330.170400242,unrot,0,1.0955344984,[],[],images/11.png,0,217,CCT,True,False,0,False,9,5
217,True,1.5,structure_learning,331.687037929,unrot,0,0.741820416064,[],[],images/2.png,3,218,CCT,True,True,0,False,10,2
218,True,1.5,structure_learning,333.203792716,unrot,0,0.607904820063,[],[],images/7.png,4,219,CCT,True,True,0,False,11,5
219,True,1.5,structure_learning,334.720573162,unrot,0,0.510808840016,[],[],images/10.png,1,220,CCT,True,True,0,False,12,5
220,True,1.5,structure_learning,336.239633549,unrot,0,0.532875790144,[],[],images/7.png,4,221,CCT,True,True,0,False,13,2
221,True,1.5,structure_learning,337.754151316,unrot,0,0.619408559083,[],[],images/2.png,3,222,CCT,True,True,0,False,14,4
222,True,1.5,structure_learning,339.270718557,rot,90,0.807345261943,[],[],images/6.png,2,223,CCT,True,False,0,False,15,13
223,True,1.5,structure_learning,340.787801315,unrot,0,0.582758760633,[],[],images/2.png,3,224,CCT,True,False,0,False,16,2
224,True,1.5,structure_learning,342.304443668,unrot,0,0.965742109664,[],[],images/11.png,0,225,CCT,True,True,0,False,17,8
225,False,1.5,structure_learning,343.822001356,rot,0,1.275002251,[],[],images/6.png,2,226,CCT,True,True,0,False,18,3
226,True,1.5,structure_learning,345.338590524,unrot,0,0.491855989123,[],[],images/10.png,1,227,CCT,False,True,0,False,19,7
227,False,1.5,structure_learning,346.855272065,unrot,90,0.695992072695,[],[],images/11.png,0,228,CCT,True,False,0,False,20,3
228,True,1.5,structure_learning,348.372438333,rot,90,0.825304866827,[],[],images/2.png,3,229,CCT,False,True,0,False,21,5
229,True,1.5,structure_learning,349.88915673,unrot,0,0.612488027633,[],[],images/7.png,4,230,CCT,True,False,0,False,22,9
230,True,1.5,structure_learning,351.405596141,unrot,0,0.617570424103,[],[],images/3.png,5,231,CCT,True,True,2,True,1,34
231,True,1.5,structure_learning,352.922747013,unrot,0,0.496467188583,[],[],images/7.png,4,232,CCT,True,True,0,True,1,2
232,True,1.5,structure_learning,354.439643626,unrot,0,0.492043534847,[],[],images/10.png,1,233,CCT,True,True,0,False,2,6
233,True,1.5,structure_learning,355.955914619,unrot,0,0.810587657325,[],[],images/2.png,3,234,CCT,True,True,0,False,3,5
234,True,1.5,structure_learning,357.473210116,unrot,0,1.20964442354,[],[],images/11.png,0,235,CCT,True,True,0,False,4,7
235,False,1.5,structure_learning,358.990383382,rot,0,1.21038574242,[],[],images/2.png,3,236,CCT,True,True,0,False,5,2
236,True,1.5,structure_learning,360.507035065,unrot,0,0.701323130605,[],[],images/11.png,0,237,CCT,False,True,0,False,6,2
237,True,1.5,structure_learning,362.023680683,unrot,0,0.635989562754,[],[],images/2.png,3,238,CCT,True,True,0,False,7,2
238,True,1.5,structure_learning,363.540418208,unrot,0,0.519249798323,[],[],images/11.png,0,239,CCT,True,True,0,False,8,2
239,True,1.5,structure_learning,365.056887011,unrot,0,0.61909411673,[],[],images/10.png,1,240,CCT,True,True,0,False,9,7
240,True,1.5,structure_learning,366.574038816,rot,90,0.677313075896,[],[],images/7.png,4,241,CCT,True,False,0,False,10,9
241,True,1.5,structure_learning,368.090761879,unrot,0,0.497919968358,[],[],images/10.png,1,242,CCT,True,False,0,False,11,2
242,True,1.5,structure_learning,369.607358511,unrot,0,1.03775501208,[],[],images/6.png,2,243,CCT,True,True,0,False,12,17
243,True,1.5,structure_learning,371.124305976,unrot,0,0.646779041708,[],[],images/7.png,4,244,CCT,True,True,0,False,13,3
244,True,1.5,structure_learning,372.641098085,unrot,0,0.621292414144,[],[],images/6.png,2,245,CCT,True,True,0,False,14,2
245,True,1.5,structure_learning,374.157661127,rot,90,0.701300270564,[],[],images/7.png,4,246,CCT,True,False,0,False,15,2
246,False,1.5,structure_learning,375.674530214,unrot,90,0.571175244695,[],[],images/10.png,1,247,CCT,True,True,0,False,16,5
247,True,1.5,structure_learning,377.191255609,unrot,0,0.930693448056,[],[],images/7.png,4,248,CCT,False,False,0,False,17,2
248,True,1.5,structure_learning,378.70830711,unrot,0,0.746717132948,[],[],images/3.png,5,249,CCT,True,True,2,True,1,18
249,False,1.5,structure_learning,380.225460782,unrot,90,1.27472653077,[],[],images/5.png,6,250,CCT,True,False,1,True,1,47
250,True,1.5,structure_learning,381.742394717,unrot,0,1.1297406037,[],[],images/4.png,8,251,CCT,False,False,1,False,2,45
251,True,1.5,structure_learning,383.259699078,rot,90,0.77436613501,[],[],images/8.png,9,252,CCT,True,False,1,False,3,45
252,False,1.5,structure_learning,384.776809362,rot,0,0.924153606495,[],[],images/1.png,7,253,CCT,True,False,1,False,4,157
253,True,1.5,structure_learning,386.293613601,unrot,0,0.854135127185,[],[],images/8.png,9,254,CCT,False,True,1,False,5,2
254,True,1.5,structure_learning,387.810340396,unrot,0,1.01943337856,[],[],images/5.png,6,255,CCT,True,True,1,False,6,5
255,True,1.5,structure_learning,389.326858184,unrot,0,0.704367716564,[],[],images/8.png,9,256,CCT,True,True,1,False,7,2
256,True,1.5,structure_learning,390.843634431,unrot,0,0.689777870255,[],[],images/5.png,6,257,CCT,True,True,1,False,8,2
257,True,1.5,structure_learning,392.36024366,unrot,0,0.878564593877,[],[],images/1.png,7,258,CCT,True,True,1,False,9,5
258,True,1.5,structure_learning,393.877679583,unrot,0,1.45706205387,[],[],images/5.png,6,259,CCT,True,True,1,False,10,2
259,True,1.5,structure_learning,395.39420297,rot,90,0.782718918839,[],[],images/8.png,9,260,CCT,True,False,1,False,11,4
260,False,1.5,structure_learning,396.911831571,unrot,90,0.648365716072,[],[],images/5.png,6,261,CCT,True,True,1,False,12,2
261,False,1.5,structure_learning,398.428573295,rot,0,0.703407127789,[],[],images/4.png,8,262,CCT,False,False,1,False,13,11
262,False,1.5,structure_learning,399.945204451,rot,0,0.827448580036,[],[],images/5.png,6,263,CCT,False,True,1,False,14,2
263,True,1.5,structure_learning,401.462325931,unrot,0,0.937261281564,[],[],images/1.png,7,264,CCT,False,True,1,False,15,6
264,True,1.5,structure_learning,402.979132503,unrot,0,0.81765141405,[],[],images/4.png,8,265,CCT,True,True,1,False,16,3
265,True,1.5,structure_learning,404.495631164,unrot,0,0.703053963254,[],[],images/9.png,10,266,CCT,True,True,1,False,17,58
266,False,1.5,structure_learning,406.01242374,unrot,90,0.678519060399,[],[],images/11.png,0,267,CCT,True,False,0,True,1,28
267,True,1.5,structure_learning,407.529067958,unrot,0,0.558639537543,[],[],images/10.png,1,268,CCT,False,False,0,False,2,21
268,False,1.5,structure_learning,409.046098465,rot,0,0.593173614645,[],[],images/11.png,0,269,CCT,True,True,0,False,3,2
269,True,1.5,structure_learning,410.56316956,unrot,0,0.862175801303,[],[],images/6.png,2,270,CCT,False,True,0,False,4,25
270,False,1.5,structure_learning,412.080323232,unrot,90,1.07501130173,[],[],images/2.png,3,271,CCT,True,False,0,False,5,33
271,True,1.5,structure_learning,413.596946923,unrot,0,0.65685892594,[],[],images/10.png,1,272,CCT,False,False,0,False,6,4
272,True,1.5,structure_learning,415.113714306,unrot,0,0.546999104728,[],[],images/7.png,4,273,CCT,True,True,0,False,7,25
273,True,1.5,structure_learning,416.63049102,unrot,0,0.57188204024,[],[],images/3.png,5,274,CCT,True,True,2,True,1,25
274,True,1.5,structure_learning,418.146914103,rot,90,1.3096655574,[],[],images/7.png,4,275,CCT,True,False,0,True,1,2
275,True,1.5,structure_learning,419.663914285,unrot,0,0.510868089565,[],[],images/2.png,3,276,CCT,True,False,0,False,2,5
276,True,1.5,structure_learning,421.181097348,rot,90,1.31373697968,[],[],images/7.png,4,277,CCT,True,False,0,False,3,2
277,True,1.5,structure_learning,422.697654325,unrot,0,0.804302075558,[],[],images/6.png,2,278,CCT,True,False,0,False,4,8
278,True,1.5,structure_learning,424.215187287,unrot,0,0.893588314677,[],[],images/7.png,4,279,CCT,True,True,0,False,5,2
279,True,1.5,structure_learning,425.731859964,unrot,0,0.548774257913,[],[],images/10.png,1,280,CCT,True,True,0,False,6,8
280,True,1.5,structure_learning,427.248824223,unrot,0,0.718012836151,[],[],images/11.png,0,281,CCT,True,True,0,False,7,12
281,True,1.5,structure_learning,428.765259902,unrot,0,0.522529516311,[],[],images/10.png,1,282,CCT,True,True,0,False,8,2
282,True,1.5,structure_learning,430.282620247,unrot,0,0.581879348378,[],[],images/7.png,4,283,CCT,True,True,0,False,9,4
283,True,1.5,structure_learning,431.799410957,unrot,0,0.701179905358,[],[],images/6.png,2,284,CCT,True,True,0,False,10,6
284,False,1.5,structure_learning,433.315956738,unrot,90,0.511934114533,[],[],images/2.png,3,285,CCT,True,False,0,False,11,9
285,True,1.5,structure_learning,434.833091748,unrot,0,0.7063406792,[],[],images/11.png,0,286,CCT,False,False,0,False,12,5
286,False,1.5,structure_learning,436.350308401,unrot,90,0.590092172672,[],[],images/6.png,2,287,CCT,True,False,0,False,13,3
287,True,1.5,structure_learning,437.866905033,unrot,0,0.505145611532,[],[],images/7.png,4,288,CCT,False,False,0,False,14,5
288,False,1.5,structure_learning,439.383528258,unrot,90,1.40801184243,[],[],images/3.png,5,289,CCT,True,False,2,True,1,15
289,True,1.5,structure_learning,440.900318968,unrot,0,1.18023659688,[],[],images/5.png,6,290,CCT,False,False,1,True,1,27
290,True,1.5,structure_learning,442.417021503,unrot,0,0.874316356087,[],[],images/8.png,9,291,CCT,True,True,1,False,2,31
291,True,1.5,structure_learning,443.933521097,unrot,0,0.825912757631,[],[],images/1.png,7,292,CCT,True,True,1,False,3,28
292,True,1.5,structure_learning,445.450238561,rot,90,0.696448807226,[],[],images/4.png,8,293,CCT,True,False,1,False,4,28
293,True,1.5,structure_learning,446.966870183,unrot,0,0.849152568466,[],[],images/9.png,10,294,CCT,True,False,1,False,5,28
294,False,1.5,structure_learning,448.483669757,rot,0,1.10845649382,[],[],images/5.png,6,295,CCT,True,True,1,False,6,5
295,True,1.5,structure_learning,450.000798236,unrot,0,0.533869036153,[],[],images/1.png,7,296,CCT,False,True,1,False,7,4
296,True,1.5,structure_learning,451.518082069,unrot,0,0.628601566539,[],[],images/5.png,6,297,CCT,True,True,1,False,8,2
297,False,1.5,structure_learning,453.034686166,rot,0,0.553419047646,[],[],images/4.png,8,298,CCT,True,True,1,False,9,5
298,True,1.5,structure_learning,454.551337383,unrot,0,0.804602988501,[],[],images/5.png,6,299,CCT,False,True,1,False,10,2
299,True,1.5,structure_learning,456.068507383,unrot,0,0.607988329226,[],[],images/8.png,9,300,CCT,True,True,1,False,11,9
300,True,1.5,structure_learning,457.584725658,unrot,0,0.528128363396,[],[],images/9.png,10,301,CCT,True,True,1,False,12,7
301,False,1.5,structure_learning,459.10139507,rot,0,1.10340488842,[],[],images/4.png,8,302,CCT,True,True,1,False,13,4
302,True,1.5,structure_learning,460.618206773,unrot,0,0.478562167904,[],[],images/8.png,9,303,CCT,False,True,1,False,14,3
303,True,1.5,structure_learning,462.134635921,unrot,0,0.502339423285,[],[],images/5.png,6,304,CCT,True,True,1,False,15,5
304,True,1.5,structure_learning,463.652251459,rot,90,0.845831329207,[],[],images/8.png,9,305,CCT,True,False,1,False,16,2
305,True,1.5,structure_learning,465.169480708,unrot,0,0.73438250093,[],[],images/1.png,7,306,CCT,True,False,1,False,17,10
306,False,1.5,structure_learning,466.686351195,unrot,90,0.582372472389,[],[],images/5.png,6,307,CCT,True,False,1,False,18,3
307,True,1.5,structure_learning,468.203097117,unrot,0,0.899731137761,[],[],images/1.png,7,308,CCT,False,False,1,False,19,2
308,True,1.5,structure_learning,469.720053912,unrot,0,0.987114860589,[],[],images/4.png,8,309,CCT,True,True,1,False,20,7
309,True,1.5,structure_learning,471.239203406,unrot,0,0.619785516727,[],[],images/9.png,10,310,CCT,True,True,1,False,21,9
310,True,1.5,structure_learning,472.753867665,unrot,0,0.709375934501,[],[],images/4.png,8,311,CCT,True,True,1,False,22,2
311,True,1.5,structure_learning,474.270542674,unrot,0,0.555038379243,[],[],images/5.png,6,312,CCT,True,True,1,False,23,5
312,True,1.5,structure_learning,475.787150037,unrot,0,0.521144383645,[],[],images/4.png,8,313,CCT,True,True,1,False,24,2
313,True,1.5,structure_learning,477.303898292,unrot,0,0.584628153243,[],[],images/8.png,9,314,CCT,True,True,1,False,25,9
314,True,1.5,structure_learning,478.82056817,unrot,0,0.516620425595,[],[],images/4.png,8,315,CCT,True,True,1,False,26,2
315,True,1.5,structure_learning,480.33713821,unrot,0,0.820580766682,[],[],images/5.png,6,316,CCT,True,True,1,False,27,4
316,True,1.5,structure_learning,481.854076811,unrot,0,0.574590256845,[],[],images/4.png,8,317,CCT,True,True,1,False,28,2
317,True,1.5,structure_learning,483.37106393,unrot,0,0.774602200079,[],[],images/9.png,10,318,CCT,True,True,1,False,29,8
318,True,1.5,structure_learning,484.887354984,unrot,0,0.56480242149,[],[],images/8.png,9,319,CCT,True,True,1,False,30,5
319,True,1.5,structure_learning,486.404155958,unrot,0,0.614776365692,[],[],images/4.png,8,320,CCT,True,True,1,False,31,3
320,True,1.5,structure_learning,487.920746525,unrot,0,0.694088156772,[],[],images/8.png,9,321,CCT,True,True,1,False,32,2
321,True,1.5,structure_learning,489.437870339,unrot,0,0.463135363709,[],[],images/5.png,6,322,CCT,True,True,1,False,33,6
322,True,1.5,structure_learning,490.954960095,unrot,0,0.415390508017,[],[],images/3.png,5,323,CCT,True,True,2,True,1,34
323,True,1.5,structure_learning,492.472210805,unrot,0,0.570443256438,[],[],images/7.png,4,324,CCT,True,True,0,True,1,36
324,True,1.5,structure_learning,493.989045369,unrot,0,0.405386668484,[],[],images/3.png,5,325,CCT,True,True,2,True,1,2
325,True,1.5,structure_learning,495.505504374,unrot,0,0.484180609346,[],[],images/5.png,6,326,CCT,True,True,1,True,1,4
326,True,1.5,structure_learning,497.022133664,unrot,0,0.813029017794,[],[],images/1.png,7,327,CCT,True,True,1,False,2,19
327,False,1.5,structure_learning,498.538878654,unrot,90,1.15262398429,[],[],images/4.png,8,328,CCT,True,False,1,False,3,8
328,True,1.5,structure_learning,500.055476686,unrot,0,0.683635047171,[],[],images/9.png,10,329,CCT,False,False,1,False,4,11
329,True,1.5,structure_learning,501.572186685,unrot,0,0.84845090477,[],[],images/4.png,8,330,CCT,True,True,1,False,5,2
330,False,1.5,structure_learning,503.089337558,unrot,90,0.88243447445,[],[],images/5.png,6,331,CCT,True,False,1,False,6,5
331,True,1.5,structure_learning,504.605881472,unrot,0,0.613025938685,[],[],images/8.png,9,332,CCT,False,False,1,False,7,11
332,True,1.5,structure_learning,506.122450579,unrot,0,0.547566873807,[],[],images/9.png,10,333,CCT,True,True,1,False,8,4
333,False,1.5,structure_learning,507.639392445,unrot,90,0.519279656379,[],[],images/5.png,6,334,CCT,True,False,1,False,9,3
334,False,1.5,structure_learning,9.98377799988e-05,rot,0,1.10856846141,[],[],images/1.png,7,335,CCT,False,False,1,False,10,8
335,True,1.5,structure_learning,1.51705989847,rot,90,1.07255361267,[],[],images/8.png,9,336,CCT,False,False,1,False,11,4
336,False,1.5,structure_learning,3.03380255538,rot,0,0.532975627924,[],[],images/1.png,7,337,CCT,True,False,1,False,12,2
337,True,1.5,structure_learning,4.55051068895,rot,90,0.752210543898,[],[],images/9.png,10,338,CCT,False,False,1,False,13,5
338,True,1.5,structure_learning,6.06704853842,unrot,0,0.855689144315,[],[],images/11.png,0,339,CCT,True,False,0,True,1,53
339,True,1.5,structure_learning,7.58383784851,unrot,0,0.545868231828,[],[],images/10.png,1,340,CCT,True,True,0,False,2,58
340,True,1.5,structure_learning,9.10062016061,rot,90,1.11750440989,[],[],images/11.png,0,341,CCT,True,False,0,False,3,2
341,False,1.5,structure_learning,10.6177523715,rot,0,0.966360264196,[],[],images/6.png,2,342,CCT,True,False,0,False,4,55
342,True,1.5,structure_learning,12.1349219049,unrot,0,0.540952853713,[],[],images/10.png,1,343,CCT,False,True,0,False,5,3
343,True,1.5,structure_learning,13.6522257995,unrot,0,1.1971651667,[],[],images/11.png,0,344,CCT,True,True,0,False,6,3
344,True,1.5,structure_learning,15.1693230205,unrot,0,0.743804108934,[],[],images/2.png,3,345,CCT,True,True,0,False,7,60
345,True,1.5,structure_learning,16.6866115195,unrot,0,0.707624107919,[],[],images/6.png,2,346,CCT,True,True,0,False,8,4
346,True,1.5,structure_learning,18.2036131015,unrot,0,0.474096059799,[],[],images/2.png,3,347,CCT,True,True,0,False,9,2
347,True,1.5,structure_learning,19.7205148457,unrot,0,0.552203732543,[],[],images/11.png,0,348,CCT,True,True,0,False,10,4
348,True,1.5,structure_learning,21.2372808292,unrot,0,0.481479857262,[],[],images/2.png,3,349,CCT,True,True,0,False,11,2
349,True,1.5,structure_learning,22.754168111,unrot,0,0.472167417727,[],[],images/10.png,1,350,CCT,True,True,0,False,12,7
350,False,1.5,structure_learning,24.2707666096,unrot,90,0.63413229998,[],[],images/11.png,0,351,CCT,True,False,0,False,13,3
351,True,1.5,structure_learning,25.7873151893,unrot,0,0.549437665992,[],[],images/2.png,3,352,CCT,False,False,0,False,14,3
352,True,1.5,structure_learning,27.3043965482,unrot,0,0.532054227777,[],[],images/10.png,1,353,CCT,True,True,0,False,15,3
353,True,1.5,structure_learning,28.8209432618,rot,90,0.710757334949,[],[],images/6.png,2,354,CCT,True,False,0,False,16,8
354,False,1.5,structure_learning,30.337726507,rot,0,0.705477595504,[],[],images/7.png,4,355,CCT,True,False,0,False,17,31
355,True,1.5,structure_learning,31.8548251276,unrot,0,0.500254026527,[],[],images/3.png,5,356,CCT,False,True,2,True,1,31
356,True,1.5,structure_learning,33.3719246812,unrot,0,0.370234903385,[],[],images/7.png,4,357,CCT,True,True,0,True,1,2
357,True,1.5,structure_learning,34.8885362427,unrot,0,0.674211573059,[],[],images/6.png,2,358,CCT,True,True,0,False,2,4
358,True,1.5,structure_learning,36.4051953905,unrot,0,0.569387961703,[],[],images/11.png,0,359,CCT,True,True,0,False,3,8
359,True,1.5,structure_learning,37.9219142543,unrot,0,0.807104531559,[],[],images/6.png,2,360,CCT,True,True,0,False,4,2
360,True,1.5,structure_learning,39.4385892641,unrot,0,0.545089590421,[],[],images/2.png,3,361,CCT,True,True,0,False,5,9
361,True,1.5,structure_learning,40.9556514952,unrot,0,0.58430111449,[],[],images/7.png,4,362,CCT,True,True,0,False,6,5
362,True,1.5,structure_learning,42.4722733204,unrot,0,0.552207464789,[],[],images/10.png,1,363,CCT,True,True,0,False,7,10
363,True,1.5,structure_learning,43.9888774174,unrot,0,0.566906479507,[],[],images/11.png,0,364,CCT,True,True,0,False,8,5
364,True,1.5,structure_learning,45.5055305002,unrot,0,0.446526368149,[],[],images/9.png,10,365,CCT,True,True,1,True,1,27
365,True,1.5,structure_learning,47.0222521632,unrot,0,0.505069566891,[],[],images/8.png,9,366,CCT,True,True,1,False,2,30
366,True,1.5,structure_learning,48.5391753679,unrot,0,0.712921575556,[],[],images/5.png,6,367,CCT,True,True,1,False,3,33
367,True,1.5,structure_learning,50.0563453678,unrot,0,0.503256624652,[],[],images/8.png,9,368,CCT,True,True,1,False,4,2
368,True,1.5,structure_learning,51.5731472743,unrot,0,0.468443095044,[],[],images/9.png,10,369,CCT,True,True,1,False,5,4
369,True,1.5,structure_learning,53.0896524665,unrot,0,0.49749262532,[],[],images/5.png,6,370,CCT,True,True,1,False,6,3
370,False,1.5,structure_learning,54.6065136225,rot,0,1.3743744393,[],[],images/4.png,8,371,CCT,True,True,1,False,7,41
371,True,1.5,structure_learning,56.1230351434,unrot,0,0.546928658441,[],[],images/5.png,6,372,CCT,False,True,1,False,8,2
372,True,1.5,structure_learning,57.6398841695,unrot,0,0.515891236515,[],[],images/8.png,9,373,CCT,True,True,1,False,9,5
373,True,1.5,structure_learning,59.1562531345,unrot,0,0.472106768604,[],[],images/9.png,10,374,CCT,True,True,1,False,10,5
374,True,1.5,structure_learning,60.6731432154,unrot,0,0.581481863366,[],[],images/8.png,9,375,CCT,True,True,1,False,11,2
375,True,1.5,structure_learning,62.1896955274,rot,90,0.829003996798,[],[],images/1.png,7,376,CCT,True,False,1,False,12,39
376,True,1.5,structure_learning,63.7064409835,rot,90,0.823259591765,[],[],images/8.png,9,377,CCT,True,True,1,False,13,2
377,False,1.5,structure_learning,65.2232825451,unrot,90,1.10738300433,[],[],images/1.png,7,378,CCT,True,True,1,False,14,2
378,True,1.5,structure_learning,66.7401105773,unrot,0,0.663112783601,[],[],images/8.png,9,379,CCT,False,False,1,False,15,2
379,False,1.5,structure_learning,68.2568065811,rot,0,0.802003007266,[],[],images/4.png,8,380,CCT,True,True,1,False,16,9
380,False,1.5,structure_learning,69.7735455057,-1,0,-1.0,[],[],images/1.png,7,381,CCT,False,True,1,False,17,3
381,True,1.5,structure_learning,71.7913212971,unrot,0,0.759979696537,[],[],images/9.png,10,382,CCT,False,True,1,False,18,8
382,True,1.5,structure_learning,73.3072274627,unrot,0,0.640520985296,[],[],images/11.png,0,383,CCT,True,True,0,True,1,19
383,False,1.5,structure_learning,74.8239794502,unrot,90,0.592234019772,[],[],images/2.png,3,384,CCT,True,False,0,False,2,23
384,True,1.5,structure_learning,76.3405597541,rot,90,0.873642217775,[],[],images/7.png,4,385,CCT,False,True,0,False,3,23
385,True,1.5,structure_learning,77.8572384961,unrot,0,1.32844299241,[],[],images/6.png,2,386,CCT,True,False,0,False,4,26
386,True,1.5,structure_learning,79.37398022,rot,90,1.3466148692,[],[],images/7.png,4,387,CCT,True,False,0,False,5,2
387,True,1.5,structure_learning,80.8905595908,unrot,0,0.612726425345,[],[],images/10.png,1,388,CCT,True,False,0,False,6,25
388,True,1.5,structure_learning,82.4073335053,unrot,0,0.895853326161,[],[],images/2.png,3,389,CCT,True,True,0,False,7,5
389,True,1.5,structure_learning,83.9245739516,unrot,0,0.485020832974,[],[],images/10.png,1,390,CCT,True,True,0,False,8,2
390,True,1.5,structure_learning,85.4416875012,unrot,0,0.685123749863,[],[],images/7.png,4,391,CCT,True,True,0,False,9,4
391,False,1.5,structure_learning,86.9581842959,unrot,90,1.35048008445,[],[],images/6.png,2,392,CCT,True,False,0,False,10,6
392,True,1.5,structure_learning,88.4750384539,unrot,0,0.58263792895,[],[],images/2.png,3,393,CCT,False,False,0,False,11,4
393,True,1.5,structure_learning,89.9923320847,unrot,0,0.546379550622,[],[],images/10.png,1,394,CCT,True,True,0,False,12,4
394,True,1.5,structure_learning,91.5093527946,unrot,0,0.594914710993,[],[],images/11.png,0,395,CCT,True,True,0,False,13,12
395,False,1.5,structure_learning,93.026464478,unrot,90,0.966408316977,[],[],images/6.png,2,396,CCT,True,False,0,False,14,4
396,True,1.5,structure_learning,94.5432220639,unrot,0,0.581396488036,[],[],images/11.png,0,397,CCT,False,False,0,False,15,2
397,True,1.5,structure_learning,96.05986395,rot,90,0.799292924523,[],[],images/2.png,3,398,CCT,True,False,0,False,16,5
398,True,1.5,structure_learning,97.5770082907,rot,90,0.867696737609,[],[],images/11.png,0,399,CCT,True,True,0,False,17,2
399,True,1.5,structure_learning,99.0941852887,unrot,0,0.717195006058,[],[],images/9.png,10,400,CCT,True,False,1,True,1,18
400,True,1.5,structure_learning,100.610628899,unrot,0,0.602412808745,[],[],images/8.png,9,401,CCT,True,True,1,False,2,22
401,True,1.5,structure_learning,102.127266586,unrot,0,0.909459723625,[],[],images/5.png,6,402,CCT,True,True,1,False,3,30
402,True,1.5,structure_learning,103.64408762,unrot,0,0.534684067068,[],[],images/8.png,9,403,CCT,True,True,1,False,4,2
403,False,1.5,structure_learning,105.160628735,unrot,90,0.503777274018,[],[],images/9.png,10,404,CCT,True,False,1,False,5,4
404,True,1.5,structure_learning,106.677267356,unrot,0,0.568999807321,[],[],images/8.png,9,405,CCT,False,False,1,False,6,2
405,False,1.5,structure_learning,108.194047802,rot,0,0.775288001692,[],[],images/4.png,8,406,CCT,True,True,1,False,7,26
406,True,1.5,structure_learning,109.711156686,unrot,0,0.664630877756,[],[],images/9.png,10,407,CCT,False,True,1,False,8,3
407,False,1.5,structure_learning,111.227911939,unrot,90,0.725000081642,[],[],images/5.png,6,408,CCT,True,False,1,False,9,6
408,True,1.5,structure_learning,112.744523967,unrot,0,0.604474878899,[],[],images/8.png,9,409,CCT,False,False,1,False,10,4
409,True,1.5,structure_learning,114.261089809,unrot,0,0.710818917112,[],[],images/1.png,7,410,CCT,True,True,1,False,11,29
410,True,1.5,structure_learning,115.778570052,unrot,0,1.12881920359,[],[],images/4.png,8,411,CCT,True,True,1,False,12,5
411,False,1.5,structure_learning,117.295236198,unrot,90,0.748659304489,[],[],images/5.png,6,412,CCT,True,False,1,False,13,4
412,False,1.5,structure_learning,118.812055366,unrot,90,1.12669695079,[],[],images/8.png,9,413,CCT,False,True,1,False,14,4
413,True,1.5,structure_learning,120.328561958,unrot,0,0.811767516047,[],[],images/5.png,6,414,CCT,False,False,1,False,15,2
414,True,1.5,structure_learning,121.84522857,unrot,0,0.686535474844,[],[],images/8.png,9,415,CCT,True,True,1,False,16,2
415,True,1.5,structure_learning,123.361954899,unrot,0,0.979289724142,[],[],images/5.png,6,416,CCT,True,True,1,False,17,2
416,True,1.5,structure_learning,124.878673296,unrot,0,0.938979051338,[],[],images/3.png,5,417,CCT,True,True,2,True,1,61
417,True,1.5,structure_learning,126.395425283,unrot,0,0.528915402392,[],[],images/7.png,4,418,CCT,True,True,0,True,1,27
418,False,1.5,structure_learning,127.912108691,rot,0,0.896108985558,[],[],images/6.png,2,419,CCT,True,True,0,False,2,23
419,True,1.5,structure_learning,129.4291294,unrot,0,0.645371982071,[],[],images/7.png,4,420,CCT,False,True,0,False,3,2
420,True,1.5,structure_learning,130.946219624,unrot,0,1.33241550994,[],[],images/2.png,3,421,CCT,True,True,0,False,4,23
421,True,1.5,structure_learning,132.463013599,unrot,0,0.498845567286,[],[],images/7.png,4,422,CCT,True,True,0,False,5,2
422,True,1.5,structure_learning,133.979531388,unrot,0,0.668370596017,[],[],images/3.png,5,423,CCT,True,True,2,True,1,6
423,True,1.5,structure_learning,135.496867473,unrot,0,0.517887992261,[],[],images/5.png,6,424,CCT,True,True,1,True,1,8
424,True,1.5,structure_learning,137.013457107,unrot,0,0.704812787822,[],[],images/1.png,7,425,CCT,True,True,1,False,2,15
425,True,1.5,structure_learning,138.530198365,unrot,0,0.698824386724,[],[],images/8.png,9,426,CCT,True,True,1,False,3,11
426,True,1.5,structure_learning,140.047043659,unrot,0,0.712245571107,[],[],images/4.png,8,427,CCT,True,True,1,False,4,16
427,True,1.5,structure_learning,141.564203861,unrot,0,0.596237794933,[],[],images/1.png,7,428,CCT,True,True,1,False,5,3
428,True,1.5,structure_learning,143.081269358,unrot,0,0.781791453803,[],[],images/4.png,8,429,CCT,True,True,1,False,6,2
429,True,1.5,structure_learning,144.59809739,unrot,0,0.485950630682,[],[],images/1.png,7,430,CCT,True,True,1,False,7,2
430,True,1.5,structure_learning,146.114662765,unrot,0,0.639612648054,[],[],images/4.png,8,431,CCT,True,True,1,False,8,2
431,True,1.5,structure_learning,147.63210242,rot,90,0.782496383239,[],[],images/9.png,10,432,CCT,True,False,1,False,9,25
432,False,1.5,structure_learning,149.148713982,rot,0,0.733253027662,[],[],images/11.png,0,433,CCT,True,False,0,True,1,34
433,True,1.5,structure_learning,150.665345138,unrot,0,0.712560946529,[],[],images/2.png,3,434,CCT,False,True,0,False,2,13
434,True,1.5,structure_learning,152.18192964,unrot,0,0.771453110996,[],[],images/11.png,0,435,CCT,True,True,0,False,3,2
435,True,1.5,structure_learning,153.698708687,unrot,0,0.511393404275,[],[],images/9.png,10,436,CCT,True,True,1,True,1,4
436,True,1.5,structure_learning,155.21517609,unrot,0,0.534866480972,[],[],images/11.png,0,437,CCT,True,True,0,True,1,2
437,False,1.5,structure_learning,156.732267246,-1,0,-1.0,[],[],images/6.png,2,438,CCT,True,True,0,False,2,19
438,True,1.5,structure_learning,158.748509081,unrot,0,0.566700272495,[],[],images/7.png,4,439,CCT,False,True,0,False,3,17
439,True,1.5,structure_learning,160.265585775,unrot,0,0.48443486914,[],[],images/3.png,5,440,CCT,True,True,2,True,1,17
440,True,1.5,structure_learning,161.782305105,unrot,0,0.554957202723,[],[],images/5.png,6,441,CCT,True,True,1,True,1,17
441,True,1.5,structure_learning,163.298960987,rot,90,0.76825596916,[],[],images/8.png,9,442,CCT,True,False,1,False,2,16
442,True,1.5,structure_learning,164.815600074,unrot,0,0.896621703898,[],[],images/5.png,6,443,CCT,True,False,1,False,3,2
443,False,1.5,structure_learning,166.332645044,unrot,90,0.607060864189,[],[],images/3.png,5,444,CCT,True,False,2,True,1,4
444,True,1.5,structure_learning,167.848804069,unrot,0,0.526211851131,[],[],images/5.png,6,445,CCT,False,False,1,True,1,2
445,True,1.5,structure_learning,169.365587314,unrot,0,0.549957848853,[],[],images/8.png,9,446,CCT,True,True,1,False,2,4
446,False,1.5,structure_learning,170.882914536,unrot,90,0.45402213317,[],[],images/9.png,10,447,CCT,True,False,1,False,3,11
447,True,1.5,structure_learning,172.399509302,unrot,0,0.777210578904,[],[],images/4.png,8,448,CCT,False,False,1,False,4,17
448,False,1.5,structure_learning,173.916193642,unrot,90,0.855872491287,[],[],images/1.png,7,449,CCT,True,False,1,False,5,19
449,True,1.5,structure_learning,175.433156502,unrot,0,0.501655021246,[],[],images/9.png,10,450,CCT,False,False,1,False,6,3
450,True,1.5,structure_learning,176.950432405,unrot,0,0.987699424819,[],[],images/4.png,8,451,CCT,True,True,1,False,7,3
451,False,1.5,structure_learning,178.467097618,unrot,90,0.722559654241,[],[],images/5.png,6,452,CCT,True,False,1,False,8,7
452,True,1.5,structure_learning,179.983751633,unrot,0,0.686652574281,[],[],images/4.png,8,453,CCT,False,False,1,False,9,2
453,False,1.5,structure_learning,181.500366461,unrot,90,0.546112227923,[],[],images/9.png,10,454,CCT,True,False,1,False,10,4
454,True,1.5,structure_learning,183.017051268,unrot,0,0.655025922839,[],[],images/4.png,8,455,CCT,False,False,1,False,11,2
455,True,1.5,structure_learning,184.533750537,unrot,0,0.533340922237,[],[],images/9.png,10,456,CCT,True,True,1,False,12,2
456,True,1.5,structure_learning,186.051404797,unrot,0,0.576838473178,[],[],images/8.png,9,457,CCT,True,True,1,False,13,11
457,True,1.5,structure_learning,187.568374188,rot,90,0.735438262229,[],[],images/4.png,8,458,CCT,True,False,1,False,14,3
458,True,1.5,structure_learning,189.085033803,unrot,0,0.509756344487,[],[],images/9.png,10,459,CCT,True,False,1,False,15,3
459,True,1.5,structure_learning,190.601892626,unrot,0,0.788091498078,[],[],images/5.png,6,460,CCT,True,True,1,False,16,8
460,True,1.5,structure_learning,192.118486459,rot,90,0.817580034694,[],[],images/8.png,9,461,CCT,True,False,1,False,17,4
461,True,1.5,structure_learning,193.635220718,unrot,0,0.705509319669,[],[],images/4.png,8,462,CCT,True,False,1,False,18,4
462,True,1.5,structure_learning,195.152428974,unrot,0,1.16317506557,[],[],images/1.png,7,463,CCT,True,True,1,False,19,14
463,True,1.5,structure_learning,196.669101651,unrot,0,0.738325160462,[],[],images/4.png,8,464,CCT,True,True,1,False,20,2
464,True,1.5,structure_learning,198.185773395,unrot,0,0.9465956481,[],[],images/5.png,6,465,CCT,True,True,1,False,21,5
465,True,1.5,structure_learning,199.702590231,unrot,0,1.34943458688,[],[],images/3.png,5,466,CCT,True,True,2,True,1,22
466,False,1.5,structure_learning,201.219096823,unrot,90,0.789917969727,[],[],images/5.png,6,467,CCT,True,False,1,True,1,2
467,True,1.5,structure_learning,202.735679926,unrot,0,0.594525157037,[],[],images/1.png,7,468,CCT,False,False,1,False,2,5
468,True,1.5,structure_learning,204.252542015,unrot,0,0.678272265097,[],[],images/5.png,6,469,CCT,True,True,1,False,3,2
469,True,1.5,structure_learning,205.769581852,unrot,0,0.49887915756,[],[],images/8.png,9,470,CCT,True,True,1,False,4,9
470,True,1.5,structure_learning,207.286064651,unrot,0,0.505350418971,[],[],images/1.png,7,471,CCT,True,True,1,False,5,3
471,True,1.5,structure_learning,208.803637734,unrot,0,0.564243516477,[],[],images/9.png,10,472,CCT,True,True,1,False,6,13
472,True,1.5,structure_learning,210.32024603,unrot,0,0.973520592961,[],[],images/11.png,0,473,CCT,True,True,0,True,1,36
473,True,1.5,structure_learning,211.836997085,unrot,0,0.55198492916,[],[],images/10.png,1,474,CCT,True,True,0,False,2,80
474,True,1.5,structure_learning,213.353831648,unrot,0,0.730606393248,[],[],images/2.png,3,475,CCT,True,True,0,False,3,41
475,True,1.5,structure_learning,214.870301851,unrot,0,1.12852575511,[],[],images/6.png,2,476,CCT,True,True,0,False,4,38
476,True,1.5,structure_learning,216.386955867,unrot,0,0.653884786268,[],[],images/2.png,3,477,CCT,True,True,0,False,5,2
477,True,1.5,structure_learning,217.903679862,unrot,0,0.543099366128,[],[],images/7.png,4,478,CCT,True,True,0,False,6,39
478,True,1.5,structure_learning,219.420425785,unrot,0,0.447747748171,[],[],images/10.png,1,479,CCT,True,True,0,False,7,5
479,False,1.5,structure_learning,220.936924446,unrot,90,0.675497801014,[],[],images/2.png,3,480,CCT,True,False,0,False,8,3
480,True,1.5,structure_learning,222.453865379,unrot,0,0.499668529228,[],[],images/10.png,1,481,CCT,False,False,0,False,9,2
481,True,1.5,structure_learning,223.970857163,unrot,0,1.03715085352,[],[],images/6.png,2,482,CCT,True,True,0,False,10,6
482,True,1.5,structure_learning,225.487602619,unrot,0,0.477686487866,[],[],images/10.png,1,483,CCT,True,True,0,False,11,2
483,False,1.5,structure_learning,227.004222579,rot,0,0.825091661798,[],[],images/11.png,0,484,CCT,True,True,0,False,12,11
484,True,1.5,structure_learning,228.52151341,unrot,0,0.620108356641,[],[],images/9.png,10,485,CCT,False,True,1,True,1,13
485,True,1.5,structure_learning,230.038436148,unrot,0,0.667712319759,[],[],images/5.png,6,486,CCT,True,True,1,False,2,17
486,True,1.5,structure_learning,231.555620611,unrot,0,0.695737346367,[],[],images/1.png,7,487,CCT,True,True,1,False,3,16
487,False,1.5,structure_learning,233.07316197,rot,0,0.71130037785,[],[],images/4.png,8,488,CCT,True,True,1,False,4,24
488,True,1.5,structure_learning,234.589797791,unrot,0,0.62396330823,[],[],images/8.png,9,489,CCT,False,True,1,False,5,19
489,True,1.5,structure_learning,236.106380894,unrot,0,0.572527720156,[],[],images/4.png,8,490,CCT,True,True,1,False,6,2
490,True,1.5,structure_learning,237.623619008,unrot,0,0.494252562552,[],[],images/1.png,7,491,CCT,True,True,1,False,7,4
491,True,1.5,structure_learning,239.140289352,unrot,0,0.74197810379,[],[],images/9.png,10,492,CCT,True,True,1,False,8,7
492,True,1.5,structure_learning,240.657303997,rot,90,0.824816408131,[],[],images/4.png,8,493,CCT,True,False,1,False,9,3
493,True,1.5,structure_learning,242.174192212,unrot,0,0.520865397673,[],[],images/8.png,9,494,CCT,True,False,1,False,10,5
494,True,1.5,structure_learning,243.690952131,unrot,0,0.698325664329,[],[],images/5.png,6,495,CCT,True,True,1,False,11,9
495,True,1.5,structure_learning,245.207784362,unrot,0,0.537779504986,[],[],images/3.png,5,496,CCT,True,True,2,True,1,30
496,True,1.5,structure_learning,246.724490162,unrot,0,0.446984968818,[],[],images/5.png,6,497,CCT,True,True,1,True,1,2
497,True,1.5,structure_learning,248.241349452,unrot,0,0.580621578876,[],[],images/3.png,5,498,CCT,True,True,2,True,1,2
498,True,1.5,structure_learning,249.757900365,unrot,0,0.594556414668,[],[],images/5.png,6,499,CCT,True,True,1,True,1,2
499,True,1.5,structure_learning,251.274608032,unrot,0,0.982478001853,[],[],images/1.png,7,500,CCT,True,True,1,False,2,9
500,True,1.5,structure_learning,252.791234989,unrot,0,0.653887118911,[],[],images/8.png,9,501,CCT,True,True,1,False,3,7
501,True,1.5,structure_learning,254.307936591,unrot,0,0.722658092418,[],[],images/9.png,10,502,CCT,True,True,1,False,4,10
502,True,1.5,structure_learning,255.824652189,unrot,0,1.3535624595,[],[],images/11.png,0,503,CCT,True,True,0,True,1,19
503,True,1.5,structure_learning,257.341327665,unrot,0,0.53940676761,[],[],images/9.png,10,504,CCT,True,True,1,True,1,2
504,True,1.5,structure_learning,258.858294724,unrot,0,0.458763028495,[],[],images/5.png,6,505,CCT,True,True,1,False,2,6
505,True,1.5,structure_learning,260.37483444,unrot,0,0.677085408417,[],[],images/3.png,5,506,CCT,True,True,2,True,1,8
506,True,1.5,structure_learning,261.891514115,rot,90,1.23474149712,[],[],images/7.png,4,507,CCT,True,False,0,True,1,29
507,True,1.5,structure_learning,263.408526427,rot,90,0.94914104513,[],[],images/2.png,3,508,CCT,True,True,0,False,2,28
508,True,1.5,structure_learning,264.925220565,unrot,0,0.58811361168,[],[],images/7.png,4,509,CCT,True,False,0,False,3,2
509,True,1.5,structure_learning,266.443021782,unrot,0,0.906312034145,[],[],images/6.png,2,510,CCT,True,True,0,False,4,28
510,True,1.5,structure_learning,267.959599287,unrot,0,0.875457959191,[],[],images/11.png,0,511,CCT,True,True,0,False,5,8
511,True,1.5,structure_learning,269.476187988,unrot,0,0.914230476948,[],[],images/6.png,2,512,CCT,True,True,0,False,6,2
512,True,1.5,structure_learning,270.993032815,unrot,0,0.539302731049,[],[],images/10.png,1,513,CCT,True,True,0,False,7,30
513,True,1.5,structure_learning,272.509596791,unrot,0,0.752902876964,[],[],images/2.png,3,514,CCT,True,True,0,False,8,6
514,True,1.5,structure_learning,274.026269001,unrot,0,0.667516842979,[],[],images/11.png,0,515,CCT,True,True,0,False,9,4
515,True,1.5,structure_learning,275.542931415,unrot,0,0.561644934845,[],[],images/2.png,3,516,CCT,True,True,0,False,10,2
516,True,1.5,structure_learning,277.059532246,unrot,0,0.616007076373,[],[],images/11.png,0,517,CCT,True,True,0,False,11,2
517,True,1.5,structure_learning,278.576225917,unrot,0,0.490786231909,[],[],images/10.png,1,518,CCT,True,True,0,False,12,5
518,True,1.5,structure_learning,280.092957844,unrot,0,0.639975609723,[],[],images/7.png,4,519,CCT,True,True,0,False,13,10
519,True,1.5,structure_learning,281.609489628,rot,90,0.663655359967,[],[],images/10.png,1,520,CCT,True,False,0,False,14,2
520,True,1.5,structure_learning,283.12649261,unrot,0,0.574313137011,[],[],images/7.png,4,521,CCT,True,False,0,False,15,2
521,True,1.5,structure_learning,284.643475531,unrot,0,0.622181623592,[],[],images/2.png,3,522,CCT,True,True,0,False,16,6
522,True,1.5,structure_learning,286.159861291,unrot,0,0.6604152972,[],[],images/11.png,0,523,CCT,True,True,0,False,17,6
523,True,1.5,structure_learning,287.676948715,unrot,0,0.564561224601,[],[],images/9.png,10,524,CCT,True,True,1,True,1,20
524,True,1.5,structure_learning,289.194194759,unrot,0,0.762877325004,[],[],images/4.png,8,525,CCT,True,True,1,False,2,32
525,True,1.5,structure_learning,290.710853907,unrot,0,0.99158050213,[],[],images/9.png,10,526,CCT,True,True,1,False,3,2
526,True,1.5,structure_learning,292.227771513,unrot,0,0.626308563136,[],[],images/11.png,0,527,CCT,True,True,0,True,1,4
527,True,1.5,structure_learning,293.744704982,unrot,0,0.725138175039,[],[],images/6.png,2,528,CCT,True,True,0,False,2,16
528,True,1.5,structure_learning,295.261394454,unrot,0,0.494718161179,[],[],images/7.png,4,529,CCT,True,True,0,False,3,8
529,True,1.5,structure_learning,296.778184231,unrot,0,0.469238065067,[],[],images/10.png,1,530,CCT,True,True,0,False,4,10
530,True,1.5,structure_learning,298.294820052,rot,90,0.773780637712,[],[],images/11.png,0,531,CCT,True,False,0,False,5,4
531,True,1.5,structure_learning,299.811722262,unrot,0,0.513694338704,[],[],images/10.png,1,532,CCT,True,False,0,False,6,2
532,True,1.5,structure_learning,301.328526035,unrot,0,0.752506791527,[],[],images/11.png,0,533,CCT,True,True,0,False,7,2
533,True,1.5,structure_learning,302.845065751,unrot,0,0.575608229061,[],[],images/2.png,3,534,CCT,True,True,0,False,8,12
534,True,1.5,structure_learning,304.361877454,rot,90,0.684398759593,[],[],images/10.png,1,535,CCT,True,False,0,False,9,3
535,True,1.5,structure_learning,305.878419503,unrot,0,0.962442330841,[],[],images/11.png,0,536,CCT,True,False,0,False,10,3
536,True,1.5,structure_learning,307.395880618,rot,90,0.770160818152,[],[],images/6.png,2,537,CCT,True,False,0,False,11,9
537,True,1.5,structure_learning,308.913128996,unrot,0,0.516516389034,[],[],images/10.png,1,538,CCT,True,False,0,False,12,3
538,True,1.5,structure_learning,310.429687839,rot,90,1.01469761512,[],[],images/11.png,0,539,CCT,True,False,0,False,13,3
539,True,1.5,structure_learning,311.946356784,unrot,0,0.799089983222,[],[],images/6.png,2,540,CCT,True,False,0,False,14,3
540,True,1.5,structure_learning,313.463249197,unrot,0,0.603503559862,[],[],images/7.png,4,541,CCT,True,True,0,False,15,12
541,True,1.5,structure_learning,314.979717534,unrot,0,0.637693803117,[],[],images/6.png,2,542,CCT,True,True,0,False,16,2
542,True,1.5,structure_learning,316.4964294,unrot,0,0.546829287166,[],[],images/7.png,4,543,CCT,True,True,0,False,17,2
543,True,1.5,structure_learning,318.013158527,unrot,0,0.810400111601,[],[],images/6.png,2,544,CCT,True,True,0,False,18,2
544,True,1.5,structure_learning,319.529592806,rot,90,1.38782268247,[],[],images/11.png,0,545,CCT,True,False,0,False,19,6
545,True,1.5,structure_learning,321.046306072,unrot,0,0.728039535781,[],[],images/6.png,2,546,CCT,True,False,0,False,20,2
546,True,1.5,structure_learning,322.563521792,unrot,0,0.692584525037,[],[],images/2.png,3,547,CCT,True,True,0,False,21,13
547,True,1.5,structure_learning,324.079996193,unrot,0,0.552025983954,[],[],images/6.png,2,548,CCT,True,True,0,False,22,2
548,True,1.5,structure_learning,325.596722988,unrot,0,0.532259035215,[],[],images/10.png,1,549,CCT,True,True,0,False,23,11
549,True,1.5,structure_learning,327.113539823,rot,90,1.00377424157,[],[],images/2.png,3,550,CCT,True,False,0,False,24,3
550,True,1.5,structure_learning,328.629922784,unrot,0,0.648836446577,[],[],images/7.png,4,551,CCT,True,False,0,False,25,8
551,True,1.5,structure_learning,330.146622987,unrot,0,0.696888280101,[],[],images/3.png,5,552,CCT,True,True,2,True,1,46
552,True,1.5,structure_learning,331.664100898,unrot,0,0.635586012824,[],[],images/5.png,6,553,CCT,True,True,1,True,1,48
553,True,1.5,structure_learning,333.181244305,rot,90,0.878986805095,[],[],images/3.png,5,554,CCT,True,False,2,True,1,2
554,True,1.5,structure_learning,334.697930045,unrot,0,0.618662574852,[],[],images/7.png,4,555,CCT,True,False,0,True,1,4
555,True,1.5,structure_learning,336.214604122,unrot,0,0.562807065347,[],[],images/10.png,1,556,CCT,True,True,0,False,2,7
556,True,1.5,structure_learning,337.731382702,unrot,0,0.58823117768,[],[],images/11.png,0,557,CCT,True,True,0,False,3,12
557,True,1.5,structure_learning,339.248295176,rot,90,1.30847496848,[],[],images/6.png,2,558,CCT,True,False,0,False,4,10
558,True,1.5,structure_learning,340.764862417,unrot,0,0.698976476066,[],[],images/2.png,3,559,CCT,True,False,0,False,5,9
559,True,1.5,structure_learning,342.281864933,unrot,0,0.597810006817,[],[],images/7.png,4,560,CCT,True,True,0,False,6,5
560,True,1.5,structure_learning,343.79888331,unrot,0,0.586548397783,[],[],images/2.png,3,561,CCT,True,True,0,False,7,2
561,True,1.5,structure_learning,345.315970267,rot,90,0.630358058406,[],[],images/7.png,4,562,CCT,True,False,0,False,8,2
562,True,1.5,structure_learning,346.832665804,rot,90,0.634406154131,[],[],images/2.png,3,563,CCT,True,True,0,False,9,2
563,True,1.5,structure_learning,348.349248907,unrot,0,0.553666309454,[],[],images/10.png,1,564,CCT,True,False,0,False,10,8
564,True,1.5,structure_learning,349.865938846,unrot,0,0.851745085209,[],[],images/6.png,2,565,CCT,True,True,0,False,11,7
565,True,1.5,structure_learning,351.382717892,unrot,0,0.491811668617,[],[],images/10.png,1,566,CCT,True,True,0,False,12,2
566,True,1.5,structure_learning,352.899482943,unrot,0,0.939650856977,[],[],images/6.png,2,567,CCT,True,True,0,False,13,2
567,True,1.5,structure_learning,354.416011928,rot,90,0.684489733278,[],[],images/7.png,4,568,CCT,True,False,0,False,14,6
568,False,1.5,structure_learning,355.932754585,rot,0,0.972443837731,[],[],images/3.png,5,569,CCT,True,False,2,True,1,15
569,True,1.5,structure_learning,357.449453855,unrot,0,0.667478587362,[],[],images/5.png,6,570,CCT,False,True,1,True,1,17
570,True,1.5,structure_learning,358.96615639,unrot,0,0.901059820113,[],[],images/1.png,7,571,CCT,True,True,1,False,2,71
571,False,1.5,structure_learning,360.483178966,rot,0,0.645187702059,[],[],images/4.png,8,572,CCT,True,True,1,False,3,47
572,True,1.5,structure_learning,362.000259858,unrot,0,0.584130363888,[],[],images/1.png,7,573,CCT,False,True,1,False,4,2
573,True,1.5,structure_learning,363.517199858,unrot,0,0.49292714594,[],[],images/9.png,10,574,CCT,True,True,1,False,5,48
574,True,1.5,structure_learning,365.034389452,unrot,0,0.568226764299,[],[],images/5.png,6,575,CCT,True,True,1,False,6,5
575,True,1.5,structure_learning,366.55107146,unrot,0,0.580608515971,[],[],images/3.png,5,576,CCT,True,True,2,True,1,7
576,True,1.5,structure_learning,368.067821581,unrot,0,0.474387175607,[],[],images/5.png,6,577,CCT,True,True,1,True,1,2
577,False,1.5,structure_learning,369.584936064,unrot,90,0.393248912849,[],[],images/1.png,7,578,CCT,True,False,1,False,2,5
578,True,1.5,structure_learning,371.102050547,unrot,0,0.546951518481,[],[],images/5.png,6,579,CCT,False,False,1,False,3,2
579,True,1.5,structure_learning,372.618640181,rot,90,0.755356833775,[],[],images/8.png,9,580,CCT,True,False,1,False,4,79
580,True,1.5,structure_learning,374.135348781,unrot,0,0.843694613955,[],[],images/4.png,8,581,CCT,True,False,1,False,5,9
581,True,1.5,structure_learning,375.652473994,unrot,0,0.673206197243,[],[],images/5.png,6,582,CCT,True,True,1,False,6,3
582,True,1.5,structure_learning,377.169231114,unrot,0,0.572574373306,[],[],images/8.png,9,583,CCT,True,True,1,False,7,3
583,True,1.5,structure_learning,378.686007361,unrot,0,0.45712316953,[],[],images/9.png,10,584,CCT,True,True,1,False,8,10
584,True,1.5,structure_learning,380.202800403,unrot,0,0.516147828952,[],[],images/5.png,6,585,CCT,True,True,1,False,9,3
585,True,1.5,structure_learning,381.719134845,unrot,0,0.480265941733,[],[],images/3.png,5,586,CCT,True,True,2,True,1,10
586,True,1.5,structure_learning,383.23584951,unrot,0,0.396201125579,[],[],images/7.png,4,587,CCT,True,True,0,True,1,19
587,True,1.5,structure_learning,384.752839429,unrot,0,0.647733565624,[],[],images/6.png,2,588,CCT,True,True,0,False,2,21
588,True,1.5,structure_learning,386.269866203,unrot,0,0.637171754119,[],[],images/7.png,4,589,CCT,True,True,0,False,3,2
589,True,1.5,structure_learning,387.786378394,rot,90,0.566452544183,[],[],images/10.png,1,590,CCT,True,False,0,False,4,24
590,True,1.5,structure_learning,389.303138779,unrot,0,0.576094355114,[],[],images/2.png,3,591,CCT,True,False,0,False,5,28
591,False,1.5,structure_learning,390.819720016,unrot,90,1.02612810867,[],[],images/6.png,2,592,CCT,True,False,0,False,6,4
592,True,1.5,structure_learning,392.336545715,unrot,0,0.880084554199,[],[],images/11.png,0,593,CCT,False,False,0,False,7,36
593,True,1.5,structure_learning,393.853691456,unrot,0,0.770252258342,[],[],images/6.png,2,594,CCT,True,True,0,False,8,2
594,True,1.5,structure_learning,395.370197114,rot,90,0.871625867672,[],[],images/7.png,4,595,CCT,True,False,0,False,9,6
595,False,1.5,structure_learning,396.887750137,unrot,90,0.861409756209,[],[],images/6.png,2,596,CCT,True,True,0,False,10,2
596,True,1.5,structure_learning,398.404411151,unrot,0,0.770102035167,[],[],images/10.png,1,597,CCT,False,False,0,False,11,7
597,True,1.5,structure_learning,399.921027377,rot,90,1.01829084239,[],[],images/2.png,3,598,CCT,True,False,0,False,12,7
598,True,1.5,structure_learning,401.437858675,unrot,0,0.528859418584,[],[],images/10.png,1,599,CCT,True,False,0,False,13,2
599,True,1.5,structure_learning,402.954458107,unrot,0,0.673276176996,[],[],images/2.png,3,600,CCT,True,True,0,False,14,2
600,False,1.5,structure_learning,404.471155044,rot,0,0.803217855835,[],[],images/6.png,2,601,CCT,True,True,0,False,15,5
601,True,1.5,structure_learning,405.98885549,unrot,0,0.536610843032,[],[],images/10.png,1,602,CCT,False,True,0,False,16,3
602,True,1.5,structure_learning,407.505989567,unrot,0,0.915558226203,[],[],images/7.png,4,603,CCT,True,True,0,False,17,8
603,True,1.5,structure_learning,409.022472833,unrot,0,0.626009049796,[],[],images/2.png,3,604,CCT,True,True,0,False,18,4
604,True,1.5,structure_learning,410.539047072,unrot,0,0.940419701248,[],[],images/6.png,2,605,CCT,True,True,0,False,19,4
605,True,1.5,structure_learning,412.055766868,unrot,0,0.800991099997,[],[],images/11.png,0,606,CCT,True,True,0,False,20,13
606,True,1.5,structure_learning,413.572455874,rot,90,0.808777514292,[],[],images/10.png,1,607,CCT,True,False,0,False,21,5
607,True,1.5,structure_learning,415.089357618,rot,90,1.0787841437,[],[],images/11.png,0,608,CCT,True,True,0,False,22,2
608,True,1.5,structure_learning,416.606552811,unrot,0,1.18108521809,[],[],images/6.png,2,609,CCT,True,False,0,False,23,4
609,True,1.5,structure_learning,418.123648166,unrot,0,0.63148193332,[],[],images/10.png,1,610,CCT,True,True,0,False,24,3
610,True,1.5,structure_learning,419.640947862,unrot,0,0.542108452762,[],[],images/6.png,2,611,CCT,True,True,0,False,25,2
611,True,1.5,structure_learning,421.157478247,unrot,0,1.08447023225,[],[],images/11.png,0,612,CCT,True,True,0,False,26,4
612,True,1.5,structure_learning,422.674447638,unrot,0,0.779957517632,[],[],images/6.png,2,613,CCT,True,True,0,False,27,2
613,True,1.5,structure_learning,424.191191228,unrot,0,0.644927843852,[],[],images/10.png,1,614,CCT,True,True,0,False,28,4
614,False,1.5,structure_learning,425.707760335,-1,90,-1.0,[],[],images/7.png,4,615,CCT,True,False,0,False,29,12
615,True,1.5,structure_learning,427.724936633,unrot,0,1.36121218003,[],[],images/6.png,2,616,CCT,False,False,0,False,30,3
616,True,1.5,structure_learning,429.241116186,unrot,0,0.694052700361,[],[],images/10.png,1,617,CCT,True,True,0,False,31,3
617,True,1.5,structure_learning,430.757912028,rot,90,0.937122255098,[],[],images/11.png,0,618,CCT,True,False,0,False,32,6
618,True,1.5,structure_learning,432.2747172,unrot,0,0.821541821992,[],[],images/2.png,3,619,CCT,True,False,0,False,33,15
619,True,1.5,structure_learning,433.791234522,unrot,0,0.73136590689,[],[],images/7.png,4,620,CCT,True,True,0,False,34,5
620,True,1.5,structure_learning,435.307797098,unrot,0,0.51593555705,[],[],images/10.png,1,621,CCT,True,True,0,False,35,4
621,True,1.5,structure_learning,436.824910181,unrot,0,0.694351747166,[],[],images/7.png,4,622,CCT,True,True,0,False,36,2
622,True,1.5,structure_learning,438.341970546,rot,90,0.882430275669,[],[],images/3.png,5,623,CCT,True,False,2,True,1,37
623,True,1.5,structure_learning,439.859072432,unrot,0,0.737240940769,[],[],images/5.png,6,624,CCT,True,False,1,True,1,39
624,True,1.5,structure_learning,441.375676996,unrot,0,0.632815747522,[],[],images/1.png,7,625,CCT,True,True,1,False,2,47
625,True,1.5,structure_learning,442.8923702,unrot,0,0.660309861036,[],[],images/5.png,6,626,CCT,True,True,1,False,3,2
626,False,1.5,structure_learning,444.409066671,rot,0,0.654197829048,[],[],images/4.png,8,627,CCT,True,True,1,False,4,46
627,True,1.5,structure_learning,445.925775737,unrot,0,0.553029960196,[],[],images/9.png,10,628,CCT,False,True,1,False,5,44
628,True,1.5,structure_learning,447.442977928,unrot,0,0.651923020399,[],[],images/11.png,0,629,CCT,True,True,0,True,1,11
629,True,1.5,structure_learning,448.959446264,unrot,0,0.730880713905,[],[],images/2.png,3,630,CCT,True,True,0,False,2,11
630,True,1.5,structure_learning,450.476175392,unrot,0,0.665199113428,[],[],images/10.png,1,631,CCT,True,True,0,False,3,10
631,True,1.5,structure_learning,451.992911984,unrot,0,0.43005686556,[],[],images/11.png,0,632,CCT,True,True,0,False,4,3
632,True,1.5,structure_learning,453.509424174,unrot,0,0.959374884813,[],[],images/6.png,2,633,CCT,True,True,0,False,5,17
633,True,1.5,structure_learning,455.026406628,rot,90,0.59385755012,[],[],images/10.png,1,634,CCT,True,False,0,False,6,3
634,True,1.5,structure_learning,456.543062044,unrot,0,1.0521909029,[],[],images/6.png,2,635,CCT,True,False,0,False,7,2
635,True,1.5,structure_learning,458.059786972,rot,90,0.612792672851,[],[],images/10.png,1,636,CCT,True,False,0,False,8,2
636,True,1.5,structure_learning,459.576825877,unrot,0,0.63211128462,[],[],images/6.png,2,637,CCT,True,False,0,False,9,2
637,True,1.5,structure_learning,461.093652976,unrot,0,0.71597922442,[],[],images/7.png,4,638,CCT,True,True,0,False,10,16
638,True,1.5,structure_learning,462.610677885,unrot,0,0.581855088705,[],[],images/6.png,2,639,CCT,True,True,0,False,11,2
639,True,1.5,structure_learning,464.12725119,rot,90,1.00472410014,[],[],images/7.png,4,640,CCT,True,False,0,False,12,2
640,True,1.5,structure_learning,465.643921535,unrot,0,0.77027605148,[],[],images/6.png,2,641,CCT,True,False,0,False,13,2
641,True,1.5,structure_learning,467.160761697,unrot,0,0.553943895851,[],[],images/10.png,1,642,CCT,True,True,0,False,14,6
642,True,1.5,structure_learning,468.678151433,rot,90,0.732962378417,[],[],images/6.png,2,643,CCT,True,False,0,False,15,2
643,True,1.5,structure_learning,470.194912285,rot,90,0.777850193845,[],[],images/2.png,3,644,CCT,True,True,0,False,16,14
644,True,1.5,structure_learning,471.711651676,rot,90,0.737259602029,[],[],images/6.png,2,645,CCT,True,True,0,False,17,2
645,True,1.5,structure_learning,473.228581879,unrot,0,0.95800887997,[],[],images/11.png,0,646,CCT,True,False,0,False,18,14
646,True,1.5,structure_learning,474.745441169,rot,90,0.613300725876,[],[],images/10.png,1,647,CCT,True,False,0,False,19,5
647,True,1.5,structure_learning,476.26200701,unrot,0,0.880646724923,[],[],images/7.png,4,648,CCT,True,False,0,False,20,8
648,False,1.5,structure_learning,477.77941914,unrot,90,1.08014828243,[],[],images/6.png,2,649,CCT,True,False,0,False,21,4
649,True,1.5,structure_learning,479.295301979,rot,90,0.735211994353,[],[],images/2.png,3,650,CCT,False,True,0,False,22,6
650,True,1.5,structure_learning,480.812466847,unrot,0,0.784746932215,[],[],images/6.png,2,651,CCT,True,False,0,False,23,2
651,True,1.5,structure_learning,482.329497821,unrot,0,0.559494223649,[],[],images/7.png,4,652,CCT,True,True,0,False,24,4
652,False,1.5,structure_learning,483.846653825,unrot,90,0.564260778163,[],[],images/3.png,5,653,CCT,True,False,2,True,1,30
653,True,1.5,structure_learning,485.363461796,unrot,0,0.54410847422,[],[],images/7.png,4,654,CCT,False,False,0,True,1,2
654,True,1.5,structure_learning,486.879934798,unrot,0,0.98969991281,[],[],images/6.png,2,655,CCT,True,True,0,False,2,4
655,True,1.5,structure_learning,488.396853803,unrot,0,0.623114687041,[],[],images/11.png,0,656,CCT,True,True,0,False,3,10
656,True,1.5,structure_learning,489.914004676,unrot,0,0.562953556306,[],[],images/9.png,10,657,CCT,True,True,1,True,1,29
657,True,1.5,structure_learning,491.430792586,unrot,0,0.557860429573,[],[],images/11.png,0,658,CCT,True,True,0,True,1,2
658,True,1.5,structure_learning,492.947407413,rot,90,0.617334825627,[],[],images/6.png,2,659,CCT,True,False,0,False,2,4
659,True,1.5,structure_learning,494.464339949,unrot,0,0.589047608169,[],[],images/10.png,1,660,CCT,True,False,0,False,3,13
660,True,1.5,structure_learning,495.980796622,unrot,0,1.05145751507,[],[],images/6.png,2,661,CCT,True,True,0,False,4,2
661,True,1.5,structure_learning,497.497433376,unrot,0,0.497114734637,[],[],images/11.png,0,662,CCT,True,True,0,False,5,4
662,True,1.5,structure_learning,499.014420962,unrot,0,0.588367871474,[],[],images/2.png,3,663,CCT,True,True,0,False,6,13
663,True,1.5,structure_learning,500.531417879,unrot,0,0.616331782425,[],[],images/6.png,2,664,CCT,True,True,0,False,7,3
664,True,1.5,structure_learning,502.048077493,unrot,0,0.625969861139,[],[],images/10.png,1,665,CCT,True,True,0,False,8,5
665,True,1.5,structure_learning,503.564823882,unrot,0,0.56099738882,[],[],images/2.png,3,666,CCT,True,True,0,False,9,3
666,True,1.5,structure_learning,505.081374794,unrot,0,0.919987478264,[],[],images/6.png,2,667,CCT,True,True,0,False,10,3
667,False,1.5,structure_learning,9.84381767921e-05,rot,0,1.04358292624,[],[],images/7.png,4,668,CCT,True,True,0,False,11,14
668,True,1.5,structure_learning,1.5175474241,unrot,0,0.829275051714,[],[],images/6.png,2,669,CCT,False,True,0,False,12,2
669,False,1.5,structure_learning,3.03467263703,rot,0,0.682234052452,[],[],images/2.png,3,670,CCT,True,True,0,False,13,4
670,True,1.5,structure_learning,4.55138683549,unrot,0,0.496678060939,[],[],images/10.png,1,671,CCT,False,True,0,False,14,6
671,True,1.5,structure_learning,6.06801705825,unrot,0,0.601671489829,[],[],images/11.png,0,672,CCT,True,True,0,False,15,10
672,True,1.5,structure_learning,7.58495332583,unrot,0,0.509608453925,[],[],images/2.png,3,673,CCT,True,True,0,False,16,3
673,True,1.5,structure_learning,9.10156955264,rot,90,0.718000706343,[],[],images/7.png,4,674,CCT,True,False,0,False,17,6
674,True,1.5,structure_learning,10.6182832846,unrot,0,0.682362815191,[],[],images/6.png,2,675,CCT,True,False,0,False,18,6
675,True,1.5,structure_learning,12.1351756982,unrot,0,0.540770439809,[],[],images/2.png,3,676,CCT,True,True,0,False,19,3
676,False,1.5,structure_learning,13.652329836,-1,0,-1.0,[],[],images/6.png,2,677,CCT,True,True,0,False,20,2
677,False,1.5,structure_learning,15.6696820167,unrot,90,0.519149494008,[],[],images/2.png,3,678,CCT,False,False,0,False,21,2
678,True,1.5,structure_learning,17.1857566001,unrot,0,0.460983719444,[],[],images/11.png,0,679,CCT,False,False,0,False,22,7
679,True,1.5,structure_learning,18.7031612656,unrot,0,0.509912166075,[],[],images/9.png,10,680,CCT,True,True,1,True,1,23
680,True,1.5,structure_learning,20.2198936588,unrot,0,0.583612513699,[],[],images/8.png,9,681,CCT,True,True,1,False,2,98
681,True,1.5,structure_learning,21.7364828267,unrot,0,0.718079550192,[],[],images/4.png,8,682,CCT,True,True,1,False,3,55
682,True,1.5,structure_learning,23.2531396418,unrot,0,0.756304826209,[],[],images/5.png,6,683,CCT,True,True,1,False,4,57
683,True,1.5,structure_learning,24.7698822987,unrot,0,0.561041242792,[],[],images/3.png,5,684,CCT,True,True,2,True,1,31
684,True,1.5,structure_learning,26.2864444078,unrot,0,0.50511622004,[],[],images/5.png,6,685,CCT,True,True,1,True,1,2
685,False,1.5,structure_learning,27.8031786672,unrot,90,0.543937723618,[],[],images/1.png,7,686,CCT,True,False,1,False,2,61
686,True,1.5,structure_learning,29.3199619123,unrot,0,0.498296925973,[],[],images/5.png,6,687,CCT,False,False,1,False,3,2
687,True,1.5,structure_learning,30.8364223176,rot,90,0.711782771628,[],[],images/4.png,8,688,CCT,True,False,1,False,4,6
688,True,1.5,structure_learning,32.353143514,unrot,0,1.17432843929,[],[],images/1.png,7,689,CCT,True,False,1,False,5,3
689,True,1.5,structure_learning,33.8698661101,unrot,0,0.515676165407,[],[],images/9.png,10,690,CCT,True,True,1,False,6,10
690,True,1.5,structure_learning,35.3865084627,unrot,0,0.738891996501,[],[],images/4.png,8,691,CCT,True,True,1,False,7,3
691,True,1.5,structure_learning,36.9030934318,unrot,0,0.448182089196,[],[],images/1.png,7,692,CCT,True,True,1,False,8,3
692,True,1.5,structure_learning,38.4202820931,unrot,0,0.542913219979,[],[],images/9.png,10,693,CCT,True,True,1,False,9,3
693,True,1.5,structure_learning,39.9374478942,unrot,0,0.564708182093,[],[],images/5.png,6,694,CCT,True,True,1,False,10,7
694,True,1.5,structure_learning,41.4547867787,unrot,0,0.563513394358,[],[],images/8.png,9,695,CCT,True,True,1,False,11,14
695,True,1.5,structure_learning,42.9717137156,unrot,0,0.497362929484,[],[],images/5.png,6,696,CCT,True,True,1,False,12,2
696,True,1.5,structure_learning,44.488779679,unrot,0,0.423269762163,[],[],images/8.png,9,697,CCT,True,True,1,False,13,2
697,False,1.5,structure_learning,46.0052111592,unrot,90,0.335884173226,[],[],images/4.png,8,698,CCT,True,False,1,False,14,7
698,False,1.5,structure_learning,47.5219477512,unrot,90,0.489589578065,[],[],images/5.png,6,699,CCT,False,True,1,False,15,3
699,True,1.5,structure_learning,49.0386787449,unrot,0,0.578408818925,[],[],images/3.png,5,700,CCT,False,False,2,True,1,16
700,True,1.5,structure_learning,50.5552623144,unrot,0,0.557545987191,[],[],images/5.png,6,701,CCT,True,True,1,True,1,2
701,True,1.5,structure_learning,52.0718976691,unrot,0,0.58032439815,[],[],images/1.png,7,702,CCT,True,True,1,False,2,10
702,False,1.5,structure_learning,53.5897506714,unrot,90,0.644270034158,[],[],images/5.png,6,703,CCT,True,False,1,False,3,2
703,False,1.5,structure_learning,55.1064811985,unrot,90,0.527837247588,[],[],images/3.png,5,704,CCT,False,True,2,True,1,4
704,True,1.5,structure_learning,56.6236558638,unrot,0,0.73130245856,[],[],images/5.png,6,705,CCT,False,False,1,True,1,2
705,False,1.5,structure_learning,58.1403835917,rot,0,0.581006934051,[],[],images/3.png,5,706,CCT,True,True,2,True,1,2
706,True,1.5,structure_learning,59.6571673034,rot,90,0.787752329517,[],[],images/7.png,4,707,CCT,False,False,0,True,1,33
707,True,1.5,structure_learning,61.1736468364,unrot,0,0.543850948714,[],[],images/10.png,1,708,CCT,True,False,0,False,2,37
708,True,1.5,structure_learning,62.6903153148,unrot,0,0.578456405201,[],[],images/7.png,4,709,CCT,True,True,0,False,3,2
709,True,1.5,structure_learning,64.2070957608,unrot,0,0.50698654569,[],[],images/10.png,1,710,CCT,True,True,0,False,4,2
710,True,1.5,structure_learning,65.7236993912,unrot,0,0.595539863483,[],[],images/2.png,3,711,CCT,True,True,0,False,5,33
711,True,1.5,structure_learning,67.2405885391,rot,90,0.718711700669,[],[],images/11.png,0,712,CCT,True,False,0,False,6,33
712,True,1.5,structure_learning,68.7577221496,rot,90,0.781982731802,[],[],images/9.png,10,713,CCT,True,True,1,True,1,20
713,True,1.5,structure_learning,70.2748305673,unrot,0,0.580090199248,[],[],images/8.png,9,714,CCT,True,False,1,False,2,17
714,True,1.5,structure_learning,71.7915802222,unrot,0,0.819911760191,[],[],images/4.png,8,715,CCT,True,True,1,False,3,17
715,True,1.5,structure_learning,73.3083074836,unrot,0,0.544682774751,[],[],images/5.png,6,716,CCT,True,True,1,False,4,11
716,False,1.5,structure_learning,74.8248206069,unrot,90,0.654955943086,[],[],images/3.png,5,717,CCT,True,False,2,True,1,11
717,True,1.5,structure_learning,76.3414970163,unrot,0,0.602362423291,[],[],images/7.png,4,718,CCT,False,False,0,True,1,9
718,True,1.5,structure_learning,77.8583539735,unrot,0,0.636846581532,[],[],images/2.png,3,719,CCT,True,True,0,False,2,8
719,True,1.5,structure_learning,79.374892756,rot,90,1.2984249423,[],[],images/7.png,4,720,CCT,True,False,0,False,3,2
720,True,1.5,structure_learning,80.8917590438,unrot,0,0.619317585399,[],[],images/2.png,3,721,CCT,True,False,0,False,4,2
721,False,1.5,structure_learning,82.4084830395,unrot,90,0.916755813087,[],[],images/7.png,4,722,CCT,True,False,0,False,5,2
722,False,1.5,structure_learning,83.9260034047,rot,0,0.960086812236,[],[],images/3.png,5,723,CCT,False,False,2,True,1,6
723,True,1.5,structure_learning,85.4431038915,unrot,0,0.574922427419,[],[],images/7.png,4,724,CCT,False,True,0,True,1,2
724,True,1.5,structure_learning,86.9599678466,rot,90,0.6289085444,[],[],images/10.png,1,725,CCT,True,False,0,False,2,15
725,False,1.5,structure_learning,88.4765154933,unrot,90,0.624250691733,[],[],images/2.png,3,726,CCT,True,True,0,False,3,5
726,True,1.5,structure_learning,89.9934382314,unrot,0,0.545364377584,[],[],images/7.png,4,727,CCT,False,False,0,False,4,3
727,True,1.5,structure_learning,91.5102387383,unrot,0,0.665561141999,[],[],images/2.png,3,728,CCT,True,True,0,False,5,2
728,True,1.5,structure_learning,93.0268815574,unrot,0,0.67417005173,[],[],images/7.png,4,729,CCT,True,True,0,False,6,2
729,True,1.5,structure_learning,94.5439400563,unrot,0,0.652345231589,[],[],images/3.png,5,730,CCT,True,True,2,True,1,7
730,True,1.5,structure_learning,96.0614734844,unrot,0,0.586065070907,[],[],images/5.png,6,731,CCT,True,True,1,True,1,15
731,False,1.5,structure_learning,97.5785557764,rot,0,0.679961109912,[],[],images/3.png,5,732,CCT,True,True,2,True,1,2
732,True,1.5,structure_learning,99.095116486,unrot,0,0.539366645855,[],[],images/7.png,4,733,CCT,False,True,0,True,1,4
733,True,1.5,structure_learning,100.611803626,unrot,0,0.762573146319,[],[],images/3.png,5,734,CCT,True,True,2,True,1,2
734,True,1.5,structure_learning,102.128571475,unrot,0,0.487701990729,[],[],images/5.png,6,735,CCT,True,True,1,True,1,4
735,False,1.5,structure_learning,103.645112124,rot,0,0.615857319674,[],[],images/4.png,8,736,CCT,True,True,1,False,2,21
736,True,1.5,structure_learning,105.162284923,unrot,0,1.19291086399,[],[],images/9.png,10,737,CCT,False,True,1,False,3,24
737,False,1.5,structure_learning,106.679391941,rot,0,0.718219509698,[],[],images/4.png,8,738,CCT,True,True,1,False,4,2
738,True,1.5,structure_learning,108.196010501,unrot,0,1.18093079608,[],[],images/5.png,6,739,CCT,False,True,1,False,5,4
739,True,1.5,structure_learning,109.712681312,unrot,0,0.691166735167,[],[],images/4.png,8,740,CCT,True,True,1,False,6,2
740,True,1.5,structure_learning,111.229542934,unrot,0,0.6071919596,[],[],images/1.png,7,741,CCT,True,True,1,False,7,39
741,True,1.5,structure_learning,112.746004272,unrot,0,0.631066253583,[],[],images/5.png,6,742,CCT,True,True,1,False,8,3
742,True,1.5,structure_learning,114.262829972,unrot,0,0.67279285012,[],[],images/8.png,9,743,CCT,True,True,1,False,9,29
743,True,1.5,structure_learning,115.780010236,unrot,0,0.577285877109,[],[],images/9.png,10,744,CCT,True,True,1,False,10,7
744,True,1.5,structure_learning,117.296612467,unrot,0,0.660287934035,[],[],images/4.png,8,745,CCT,True,True,1,False,11,5
745,True,1.5,structure_learning,118.814200945,unrot,0,0.768834468472,[],[],images/1.png,7,746,CCT,True,True,1,False,12,5
746,True,1.5,structure_learning,120.331433461,unrot,0,0.56338463162,[],[],images/8.png,9,747,CCT,True,True,1,False,13,4
747,True,1.5,structure_learning,121.84786774,unrot,0,0.587558438914,[],[],images/4.png,8,748,CCT,True,True,1,False,14,3
748,True,1.5,structure_learning,123.364580072,unrot,0,0.83571458896,[],[],images/1.png,7,749,CCT,True,True,1,False,15,3
749,True,1.5,structure_learning,124.881212161,unrot,0,0.580664033245,[],[],images/9.png,10,750,CCT,True,True,1,False,16,6
750,True,1.5,structure_learning,126.398084514,rot,90,1.01784203888,[],[],images/4.png,8,751,CCT,True,False,1,False,17,3
751,True,1.5,structure_learning,127.914984392,unrot,0,0.647595472226,[],[],images/1.png,7,752,CCT,True,False,1,False,18,3
752,False,1.5,structure_learning,129.432039625,unrot,90,0.666151771176,[],[],images/9.png,10,753,CCT,True,False,1,False,19,3
753,True,1.5,structure_learning,130.949115386,unrot,0,1.01920944333,[],[],images/4.png,8,754,CCT,False,False,1,False,20,3
754,False,1.5,structure_learning,132.465810923,unrot,90,0.719306062092,[],[],images/1.png,7,755,CCT,True,False,1,False,21,3
755,True,1.5,structure_learning,133.982471004,unrot,0,0.892633324256,[],[],images/4.png,8,756,CCT,False,False,1,False,22,2
756,True,1.5,structure_learning,135.499220659,unrot,0,0.592631504813,[],[],images/5.png,6,757,CCT,True,True,1,False,23,15
757,False,1.5,structure_learning,137.015808427,rot,0,0.672759259847,[],[],images/4.png,8,758,CCT,True,True,1,False,24,2
758,True,1.5,structure_learning,138.53259867,unrot,0,0.689591724105,[],[],images/8.png,9,759,CCT,False,True,1,False,25,12
759,True,1.5,structure_learning,140.049924025,rot,90,1.39602710924,[],[],images/1.png,7,760,CCT,True,False,1,False,26,5
760,True,1.5,structure_learning,141.567166338,unrot,0,0.667283577117,[],[],images/8.png,9,761,CCT,True,False,1,False,27,2
761,True,1.5,structure_learning,143.083727047,unrot,0,0.631203880446,[],[],images/1.png,7,762,CCT,True,True,1,False,28,2
762,True,1.5,structure_learning,144.600535019,unrot,0,0.590554505616,[],[],images/8.png,9,763,CCT,True,True,1,False,29,2
763,True,1.5,structure_learning,146.117043943,unrot,0,0.72068932862,[],[],images/4.png,8,764,CCT,True,True,1,False,30,6
764,True,1.5,structure_learning,147.633702624,unrot,0,0.852647824096,[],[],images/5.png,6,765,CCT,True,True,1,False,31,8
765,True,1.5,structure_learning,149.150728932,unrot,0,0.532587473514,[],[],images/4.png,8,766,CCT,True,True,1,False,32,2
766,True,1.5,structure_learning,150.667670332,unrot,0,0.562222967652,[],[],images/9.png,10,767,CCT,True,True,1,False,33,14
767,True,1.5,structure_learning,152.184023435,unrot,0,0.620388275682,[],[],images/5.png,6,768,CCT,True,True,1,False,34,3
768,True,1.5,structure_learning,153.700769357,unrot,0,0.534637880424,[],[],images/3.png,5,769,CCT,True,True,2,True,1,35
769,True,1.5,structure_learning,155.217564732,unrot,0,0.595097124897,[],[],images/7.png,4,770,CCT,True,True,0,True,1,37
770,True,1.5,structure_learning,156.73409605,unrot,0,0.712345875421,[],[],images/2.png,3,771,CCT,True,True,0,False,2,43
771,False,1.5,structure_learning,158.250713677,rot,0,0.840372441598,[],[],images/11.png,0,772,CCT,True,True,0,False,3,60
772,True,1.5,structure_learning,159.769484347,unrot,0,1.02851348533,[],[],images/9.png,10,773,CCT,False,True,1,True,1,6
773,True,1.5,structure_learning,161.285185705,unrot,0,0.82356283738,[],[],images/8.png,9,774,CCT,True,True,1,False,2,11
774,True,1.5,structure_learning,162.801454366,unrot,0,0.502810620324,[],[],images/1.png,7,775,CCT,True,True,1,False,3,13
775,True,1.5,structure_learning,164.318893555,unrot,0,0.506404780637,[],[],images/8.png,9,776,CCT,True,True,1,False,4,2
776,True,1.5,structure_learning,165.835940857,unrot,0,0.741622606613,[],[],images/4.png,8,777,CCT,True,True,1,False,5,11
777,False,1.5,structure_learning,167.352551019,unrot,90,0.546106163005,[],[],images/5.png,6,778,CCT,True,False,1,False,6,10
778,True,1.5,structure_learning,168.869184041,unrot,0,0.853647601529,[],[],images/3.png,5,779,CCT,False,False,2,True,1,10
779,True,1.5,structure_learning,170.385870714,unrot,0,0.602517311811,[],[],images/5.png,6,780,CCT,True,True,1,True,1,2
780,True,1.5,structure_learning,171.902583513,unrot,0,1.18975477695,[],[],images/4.png,8,781,CCT,True,True,1,False,2,4
781,True,1.5,structure_learning,173.419523046,rot,90,0.635725039261,[],[],images/9.png,10,782,CCT,True,False,1,False,3,9
782,True,1.5,structure_learning,174.935859354,unrot,0,0.550751885836,[],[],images/8.png,9,783,CCT,True,False,1,False,4,7
783,True,1.5,structure_learning,176.452558623,unrot,0,0.618671438977,[],[],images/4.png,8,784,CCT,True,True,1,False,5,3
784,True,1.5,structure_learning,177.969496757,unrot,0,0.563129905291,[],[],images/8.png,9,785,CCT,True,True,1,False,6,2
785,True,1.5,structure_learning,179.485932902,rot,90,0.6611934721,[],[],images/9.png,10,786,CCT,True,False,1,False,7,4
786,True,1.5,structure_learning,181.0034556,unrot,0,0.744512304082,[],[],images/5.png,6,787,CCT,True,False,1,False,8,7
787,True,1.5,structure_learning,182.520680651,unrot,0,0.578471334185,[],[],images/4.png,8,788,CCT,True,True,1,False,9,4
788,True,1.5,structure_learning,184.037993876,unrot,0,0.592601180222,[],[],images/8.png,9,789,CCT,True,True,1,False,10,4
789,False,1.5,structure_learning,185.554590509,unrot,90,0.596700127877,[],[],images/4.png,8,790,CCT,True,False,1,False,11,2
790,False,1.5,structure_learning,187.071206736,rot,0,1.34373450241,[],[],images/8.png,9,791,CCT,False,False,1,False,12,2
791,True,1.5,structure_learning,188.588263368,unrot,0,0.803899925202,[],[],images/1.png,7,792,CCT,False,True,1,False,13,17
792,True,1.5,structure_learning,190.104953774,unrot,0,0.590129495191,[],[],images/9.png,10,793,CCT,True,True,1,False,14,7
793,True,1.5,structure_learning,191.621522414,unrot,0,0.562308809487,[],[],images/8.png,9,794,CCT,True,True,1,False,15,3
794,False,1.5,structure_learning,193.138661623,unrot,90,0.645693422412,[],[],images/4.png,8,795,CCT,True,False,1,False,16,5
795,False,1.5,structure_learning,194.655837221,-1,0,-1.0,[],[],images/1.png,7,796,CCT,False,False,1,False,17,4
796,True,1.5,structure_learning,196.672942607,unrot,0,0.0440671861579,['right'],[0.5035803976352327],images/9.png,10,797,CCT,False,True,1,False,18,4
797,True,1.5,structure_learning,198.189124493,unrot,0,0.496188669145,[],[],images/8.png,9,798,CCT,True,True,1,False,19,4
798,True,1.5,structure_learning,199.706618732,unrot,0,0.774444978888,[],[],images/4.png,8,799,CCT,True,True,1,False,20,4
799,False,1.5,structure_learning,201.223304939,unrot,90,1.21226353256,[],[],images/5.png,6,800,CCT,True,False,1,False,21,13
800,True,1.5,structure_learning,202.739910435,unrot,0,0.519344504282,[],[],images/8.png,9,801,CCT,False,False,1,False,22,3
801,False,1.5,structure_learning,204.257070638,unrot,90,0.682807419886,[],[],images/5.png,6,802,CCT,True,False,1,False,23,2
802,True,1.5,structure_learning,205.773779705,unrot,0,0.665451973589,[],[],images/4.png,8,803,CCT,False,False,1,False,24,4
803,False,1.5,structure_learning,207.290393599,unrot,90,0.644217782596,[],[],images/5.png,6,804,CCT,True,False,1,False,25,2
804,True,1.5,structure_learning,208.807444167,unrot,0,0.495205686835,[],[],images/8.png,9,805,CCT,False,False,1,False,26,4
805,False,1.5,structure_learning,210.324258669,unrot,90,0.507686809811,[],[],images/9.png,10,806,CCT,True,False,1,False,27,9
806,True,1.5,structure_learning,211.84100086,unrot,0,1.09918557559,[],[],images/11.png,0,807,CCT,False,False,0,True,1,35
807,True,1.5,structure_learning,213.358517493,unrot,0,0.551134908397,[],[],images/10.png,1,808,CCT,True,True,0,False,2,83
808,True,1.5,structure_learning,214.875347391,unrot,0,1.01840514268,[],[],images/6.png,2,809,CCT,True,True,0,False,3,132
809,True,1.5,structure_learning,216.392557046,unrot,0,0.701625443151,[],[],images/2.png,3,810,CCT,True,True,0,False,4,39
810,True,1.5,structure_learning,217.909421935,unrot,0,0.58127425675,[],[],images/10.png,1,811,CCT,True,True,0,False,5,3
811,True,1.5,structure_learning,219.425796498,unrot,0,0.654855172237,[],[],images/6.png,2,812,CCT,True,True,0,False,6,3
812,True,1.5,structure_learning,220.942687045,unrot,0,0.508914721286,[],[],images/2.png,3,813,CCT,True,True,0,False,7,3
813,True,1.5,structure_learning,222.459777268,rot,90,0.751667500968,[],[],images/7.png,4,814,CCT,True,False,0,False,8,44
814,True,1.5,structure_learning,223.976973861,unrot,0,0.762167263747,[],[],images/6.png,2,815,CCT,True,False,0,False,9,3
815,True,1.5,structure_learning,225.493631142,unrot,0,0.563710737275,[],[],images/2.png,3,816,CCT,True,True,0,False,10,3
816,True,1.5,structure_learning,227.010408789,unrot,0,0.600782746886,[],[],images/7.png,4,817,CCT,True,True,0,False,11,3
817,True,1.5,structure_learning,228.527005888,unrot,0,0.478675068589,[],[],images/2.png,3,818,CCT,True,True,0,False,12,2
818,True,1.5,structure_learning,230.043637044,rot,90,0.691546025453,[],[],images/10.png,1,819,CCT,True,False,0,False,13,8
819,True,1.5,structure_learning,231.560880289,unrot,0,0.650966163841,[],[],images/2.png,3,820,CCT,True,False,0,False,14,2
820,True,1.5,structure_learning,233.077379883,unrot,0,0.6407033992,[],[],images/10.png,1,821,CCT,True,True,0,False,15,2
821,True,1.5,structure_learning,234.594039497,unrot,0,0.668678040383,[],[],images/7.png,4,822,CCT,True,True,0,False,16,5
822,True,1.5,structure_learning,236.110999558,unrot,0,0.906843880308,[],[],images/6.png,2,823,CCT,True,True,0,False,17,8
823,True,1.5,structure_learning,237.627784203,unrot,0,0.527025482443,[],[],images/2.png,3,824,CCT,True,True,0,False,18,4
824,True,1.5,structure_learning,239.144438685,unrot,0,0.585341946746,[],[],images/7.png,4,825,CCT,True,True,0,False,19,3
