,correct,duration,exp_stage,onset,response,rotation,rt,secondary_responses,secondary_rts,stim_file,stim_index,trialnum,subjid,correct_shift,community,community_cross,steps_within_community,steps_since_seen
0,False,1.5,structure_learning,2.01627206802,rot,0,0.878895044327,[],[],images/15.png,0,1,GL,,0,,1,0
1,False,1.5,structure_learning,3.52276611328,rot,0,1.19125699997,[],[],images/5.png,1,2,GL,False,0,False,2,0
2,False,1.5,structure_learning,5.02794313431,-1,0,-1.0,[],[],images/15.png,0,3,GL,False,0,False,3,2
3,False,1.5,structure_learning,6.5331120491,rot,0,0.181287050247,[],[],images/5.png,1,4,GL,False,0,False,4,2
4,False,1.5,structure_learning,8.03823399544,rot,0,0.772238969803,[],[],images/14.png,2,5,GL,False,0,False,5,0
5,True,1.5,structure_learning,9.54335904121,unrot,0,0.534736871719,[],[],images/11.png,4,6,GL,False,0,False,6,0
6,False,1.5,structure_learning,11.0486769676,rot,0,0.562691926956,[],[],images/10.png,3,7,GL,True,0,False,7,0
7,False,1.5,structure_learning,12.5538220406,rot,0,0.652529001236,[],[],images/15.png,0,8,GL,False,0,False,8,5
8,False,1.5,structure_learning,14.0589580536,rot,0,1.02734684944,[],[],images/8.png,14,9,GL,False,2,True,1,0
9,True,1.5,structure_learning,15.5654871464,unrot,0,0.773482084274,[],[],images/1.png,12,10,GL,False,2,False,2,0
10,True,1.5,structure_learning,17.0713009834,unrot,0,0.640919923782,[],[],images/13.png,10,11,GL,True,2,False,3,0
11,False,1.5,structure_learning,18.5766479969,rot,0,0.811587095261,[],[],images/9.png,13,12,GL,True,2,False,4,0
12,False,1.5,structure_learning,20.0820741653,unrot,90,1.28181099892,[],[],images/1.png,12,13,GL,False,2,False,5,3
13,False,1.5,structure_learning,21.5872781277,-1,0,-1.0,[],[],images/13.png,10,14,GL,False,2,False,6,3
14,False,1.5,structure_learning,23.0925500393,rot,0,0.14485001564,[],[],images/9.png,13,15,GL,False,2,False,7,3
15,False,1.5,structure_learning,24.5991470814,rot,0,0.329565048218,[],[],images/7.png,11,16,GL,False,2,False,8,0
16,True,1.5,structure_learning,26.1049261093,unrot,0,0.759737968445,[],[],images/9.png,13,17,GL,False,2,False,9,2
17,True,1.5,structure_learning,27.6101300716,unrot,0,0.563923120499,[],[],images/13.png,10,18,GL,True,2,False,10,4
18,False,1.5,structure_learning,29.1153659821,rot,0,0.830899000168,[],[],images/1.png,12,19,GL,True,2,False,11,6
19,False,1.5,structure_learning,30.6205329895,unrot,90,1.10225605965,[],[],images/13.png,10,20,GL,False,2,False,12,2
20,False,1.5,structure_learning,32.1257500648,rot,0,1.29745292664,[],[],images/7.png,11,21,GL,False,2,False,13,5
21,False,1.5,structure_learning,33.6311149597,unrot,90,1.09224200249,[],[],images/9.png,13,22,GL,False,2,False,14,5
22,False,1.5,structure_learning,35.1363551617,rot,0,0.969164133072,[],[],images/7.png,11,23,GL,False,2,False,15,2
23,False,1.5,structure_learning,36.6417469978,unrot,90,1.13717913628,[],[],images/1.png,12,24,GL,False,2,False,16,5
24,False,1.5,structure_learning,38.1472051144,rot,0,1.093531847,[],[],images/9.png,13,25,GL,False,2,False,17,3
25,False,1.5,structure_learning,39.6524891853,-1,90,-1.0,[],[],images/7.png,11,26,GL,False,2,False,18,3
26,True,1.5,structure_learning,41.1578409672,unrot,0,0.781625986099,[],[],images/8.png,14,27,GL,False,2,False,19,18
27,False,1.5,structure_learning,42.6633300781,unrot,90,1.03895688057,[],[],images/7.png,11,28,GL,True,2,False,20,2
28,True,1.5,structure_learning,44.1684961319,rot,90,1.02722883224,[],[],images/8.png,14,29,GL,False,2,False,21,2
29,False,1.5,structure_learning,45.673803091,unrot,90,0.964365005493,[],[],images/1.png,12,30,GL,True,2,False,22,6
30,False,1.5,structure_learning,47.1792140007,rot,0,1.23046588898,[],[],images/8.png,14,31,GL,False,2,False,23,2
31,False,1.5,structure_learning,48.68445611,rot,0,1.47925186157,[],[],images/7.png,11,32,GL,False,2,False,24,4
32,True,1.5,structure_learning,50.1899161339,unrot,0,1.48855686188,[],[],images/13.png,10,33,GL,False,2,False,25,13
33,True,1.5,structure_learning,51.6953730583,unrot,0,1.09355902672,[],[],images/2.png,9,34,GL,True,1,True,1,0
34,True,1.5,structure_learning,53.2006671429,rot,90,0.819051980972,[],[],images/6.png,8,35,GL,True,1,False,2,0
35,True,1.5,structure_learning,54.7060511112,unrot,0,0.565711021423,[],[],images/3.png,5,36,GL,True,1,False,3,0
36,True,1.5,structure_learning,56.2115790844,unrot,0,0.481085062027,[],[],images/12.png,7,37,GL,True,1,False,4,0
37,True,1.5,structure_learning,57.7167861462,unrot,0,0.635000944138,[],[],images/4.png,6,38,GL,True,1,False,5,0
38,True,1.5,structure_learning,59.2220201492,unrot,0,0.772740125656,[],[],images/3.png,5,39,GL,True,1,False,6,3
39,False,1.5,structure_learning,60.7273001671,rot,0,1.01570105553,[],[],images/11.png,4,40,GL,True,0,True,1,34
40,True,1.5,structure_learning,62.23239398,unrot,0,0.969326019287,[],[],images/5.png,1,41,GL,False,0,False,2,37
41,True,1.5,structure_learning,63.7375981808,unrot,0,0.56684088707,[],[],images/11.png,4,42,GL,True,0,False,3,2
42,False,1.5,structure_learning,65.2428951263,rot,0,0.849523067474,[],[],images/14.png,2,43,GL,True,0,False,4,38
43,True,1.5,structure_learning,66.7477941513,unrot,0,0.620290994644,[],[],images/11.png,4,44,GL,False,0,False,5,2
44,True,1.5,structure_learning,68.2529950142,unrot,0,0.630728006363,[],[],images/14.png,2,45,GL,True,0,False,6,2
45,True,1.5,structure_learning,69.7580361366,unrot,0,0.521520853043,[],[],images/10.png,3,46,GL,True,0,False,7,39
46,True,1.5,structure_learning,71.2633550167,unrot,0,0.500465154648,[],[],images/5.png,1,47,GL,True,0,False,8,6
47,True,1.5,structure_learning,72.7686281204,unrot,0,0.462515115738,[],[],images/10.png,3,48,GL,True,0,False,9,2
48,True,1.5,structure_learning,74.273786068,unrot,0,0.695214033127,[],[],images/11.png,4,49,GL,True,0,False,10,5
49,True,1.5,structure_learning,75.7789981365,unrot,0,0.848249912262,[],[],images/5.png,1,50,GL,True,0,False,11,3
50,True,1.5,structure_learning,77.2842040062,unrot,0,0.906026124954,[],[],images/14.png,2,51,GL,True,0,False,12,6
51,True,1.5,structure_learning,78.7892150879,rot,90,1.25137901306,[],[],images/15.png,0,52,GL,True,0,False,13,44
52,True,1.5,structure_learning,80.2944819927,unrot,0,1.04605507851,[],[],images/8.png,14,53,GL,True,2,True,1,22
53,False,1.5,structure_learning,81.7996439934,unrot,90,1.00051593781,[],[],images/1.png,12,54,GL,True,2,False,2,24
54,True,1.5,structure_learning,83.304872036,rot,90,0.948448896408,[],[],images/7.png,11,55,GL,False,2,False,3,23
55,False,1.5,structure_learning,84.8101160526,rot,0,0.806123971939,[],[],images/8.png,14,56,GL,True,2,False,4,3
56,False,1.5,structure_learning,86.3167710304,rot,0,0.959501981735,[],[],images/1.png,12,57,GL,False,2,False,5,3
57,True,1.5,structure_learning,87.8220741749,unrot,0,0.562361955643,[],[],images/7.png,11,58,GL,False,2,False,6,3
58,False,1.5,structure_learning,89.327712059,unrot,90,0.588316917419,[],[],images/8.png,14,59,GL,True,2,False,7,3
59,False,1.5,structure_learning,90.8332619667,rot,0,1.06044483185,[],[],images/15.png,0,60,GL,False,0,True,1,8
60,True,1.5,structure_learning,92.3384101391,unrot,0,1.18026995659,[],[],images/10.png,3,61,GL,False,0,False,2,13
61,True,1.5,structure_learning,93.8437211514,unrot,0,0.769681930542,[],[],images/15.png,0,62,GL,True,0,False,3,2
62,True,1.5,structure_learning,95.3488559723,unrot,0,0.827301025391,[],[],images/10.png,3,63,GL,True,0,False,4,2
63,False,1.5,structure_learning,96.8541321754,unrot,90,0.519981861115,[],[],images/15.png,0,64,GL,True,0,False,5,2
64,True,1.5,structure_learning,98.359236002,unrot,0,1.14227104187,[],[],images/8.png,14,65,GL,False,2,True,1,6
65,False,1.5,structure_learning,99.8645961285,rot,0,0.685398817062,[],[],images/1.png,12,66,GL,True,2,False,2,9
66,True,1.5,structure_learning,101.369899988,unrot,0,0.630451917648,[],[],images/8.png,14,67,GL,False,2,False,3,2
67,False,1.5,structure_learning,102.875277042,rot,0,0.841112852097,[],[],images/15.png,0,68,GL,True,0,True,1,4
68,True,1.5,structure_learning,104.380373955,unrot,0,0.786530971527,[],[],images/5.png,1,69,GL,False,0,False,2,19
69,True,1.5,structure_learning,105.885792971,unrot,0,0.892697095871,[],[],images/15.png,0,70,GL,True,0,False,3,2
70,True,1.5,structure_learning,107.390846968,unrot,0,0.843405008316,[],[],images/14.png,2,71,GL,True,0,False,4,20
71,True,1.5,structure_learning,108.899935961,unrot,0,0.496004104614,[],[],images/11.png,4,72,GL,True,0,False,5,23
72,False,1.5,structure_learning,110.405207157,rot,0,0.727336883545,[],[],images/14.png,2,73,GL,True,0,False,6,2
73,True,1.5,structure_learning,111.912986994,unrot,0,0.518112897873,[],[],images/11.png,4,74,GL,False,0,False,7,2
74,True,1.5,structure_learning,113.421512127,unrot,0,0.741656064987,[],[],images/3.png,5,75,GL,True,1,True,1,36
75,True,1.5,structure_learning,114.928090096,unrot,0,0.560360908508,[],[],images/12.png,7,76,GL,True,1,False,2,39
76,True,1.5,structure_learning,116.434684038,unrot,0,0.570254087448,[],[],images/3.png,5,77,GL,True,1,False,3,2
77,True,1.5,structure_learning,117.940066099,unrot,0,0.643974065781,[],[],images/6.png,8,78,GL,True,1,False,4,43
78,True,1.5,structure_learning,119.445368052,unrot,0,0.447761058807,[],[],images/3.png,5,79,GL,True,1,False,5,2
79,False,1.5,structure_learning,120.95068717,unrot,90,0.386937856674,[],[],images/11.png,4,80,GL,True,0,True,1,6
80,True,1.5,structure_learning,122.455881119,unrot,0,0.691581010818,[],[],images/14.png,2,81,GL,False,0,False,2,8
81,True,1.5,structure_learning,123.960839033,unrot,0,0.668174028397,[],[],images/5.png,1,82,GL,True,0,False,3,13
82,True,1.5,structure_learning,125.467728138,unrot,0,0.94864487648,[],[],images/14.png,2,83,GL,True,0,False,4,2
83,True,1.5,structure_learning,126.972881079,unrot,0,1.25257205963,[],[],images/10.png,3,84,GL,True,0,False,5,21
84,True,1.5,structure_learning,128.478317976,unrot,0,0.982487916946,[],[],images/14.png,2,85,GL,True,0,False,6,2
85,True,1.5,structure_learning,129.985541105,unrot,0,0.849389076233,[],[],images/11.png,4,86,GL,True,0,False,7,6
86,True,1.5,structure_learning,131.490975142,unrot,0,0.992810964584,[],[],images/3.png,5,87,GL,True,1,True,1,8
87,False,1.5,structure_learning,132.997724056,unrot,90,0.574546098709,[],[],images/4.png,6,88,GL,True,1,False,2,50
88,True,1.5,structure_learning,134.502938986,unrot,0,0.3460688591,['right'],[1.1863038539886475],images/2.png,9,89,GL,False,1,False,3,55
89,False,1.5,structure_learning,136.008166075,unrot,90,0.895116090775,[],[],images/12.png,7,90,GL,True,1,False,4,14
90,True,1.5,structure_learning,137.51333499,unrot,0,0.500067949295,[],[],images/3.png,5,91,GL,False,1,False,5,4
91,True,1.5,structure_learning,139.018707991,unrot,0,0.706969976425,[],[],images/11.png,4,92,GL,True,0,True,1,6
92,True,1.5,structure_learning,140.52600503,unrot,0,0.645639896393,[],[],images/3.png,5,93,GL,True,1,True,1,2
93,True,1.5,structure_learning,142.031499147,unrot,0,0.480724096298,[],[],images/12.png,7,94,GL,True,1,False,2,4
94,False,1.5,structure_learning,143.536717176,unrot,90,0.49924993515,[],[],images/6.png,8,95,GL,True,1,False,3,17
95,True,1.5,structure_learning,145.041926146,unrot,0,0.563851118088,[],[],images/2.png,9,96,GL,False,1,False,4,7
96,True,1.5,structure_learning,146.548521996,unrot,0,0.327488183975,[],[],images/6.png,8,97,GL,True,1,False,5,2
97,True,1.5,structure_learning,148.053838015,unrot,0,0.36149096489,[],[],images/12.png,7,98,GL,True,1,False,6,4
98,False,1.5,structure_learning,149.559108019,unrot,90,0.411165952682,[],[],images/4.png,6,99,GL,True,1,False,7,11
99,True,1.5,structure_learning,151.064568043,unrot,0,0.365909814835,[],[],images/3.png,5,100,GL,False,1,False,8,7
100,False,1.5,structure_learning,152.569907188,unrot,90,0.399478912354,[],[],images/11.png,4,101,GL,True,0,True,1,9
101,True,1.5,structure_learning,154.075157166,unrot,0,0.32217001915,[],[],images/5.png,1,102,GL,False,0,False,2,20
102,True,1.5,structure_learning,155.580346107,unrot,0,0.308725833893,[],[],images/11.png,4,103,GL,True,0,False,3,2
103,True,1.5,structure_learning,157.085605145,unrot,0,0.366465806961,[],[],images/3.png,5,104,GL,True,1,True,1,4
104,True,1.5,structure_learning,158.591400146,unrot,0,0.414438009262,[],[],images/11.png,4,105,GL,True,0,True,1,2
105,True,1.5,structure_learning,160.098549128,unrot,0,0.416512966156,[],[],images/5.png,1,106,GL,True,0,False,2,4
106,False,1.5,structure_learning,161.604565144,unrot,90,0.338521003723,[],[],images/15.png,0,107,GL,True,0,False,3,37
107,True,1.5,structure_learning,163.109976053,unrot,0,0.497826814651,[],[],images/8.png,14,108,GL,False,2,True,1,41
108,True,1.5,structure_learning,164.61691308,unrot,0,0.444401979446,[],[],images/7.png,11,109,GL,True,2,False,2,51
109,True,1.5,structure_learning,166.122169018,unrot,0,0.629193067551,[],[],images/1.png,12,110,GL,True,2,False,3,44
110,True,1.5,structure_learning,167.627510071,unrot,0,0.798588037491,[],[],images/8.png,14,111,GL,True,2,False,4,3
111,False,1.5,structure_learning,169.132889032,unrot,90,0.705652952194,[],[],images/7.png,11,112,GL,True,2,False,5,3
112,True,1.5,structure_learning,170.638126135,unrot,0,0.564799785614,[],[],images/1.png,12,113,GL,False,2,False,6,3
113,True,1.5,structure_learning,172.143505096,unrot,0,0.296180963516,[],[],images/7.png,11,114,GL,True,2,False,7,2
114,True,1.5,structure_learning,173.649408102,unrot,0,0.21730017662,[],[],images/8.png,14,115,GL,True,2,False,8,4
115,False,1.5,structure_learning,175.156337023,rot,0,0.689698934555,[],[],images/15.png,0,116,GL,True,0,True,1,9
116,True,1.5,structure_learning,176.661529064,unrot,0,0.570761919022,[],[],images/10.png,3,117,GL,False,0,False,2,33
117,True,1.5,structure_learning,178.167226076,unrot,0,0.324720859528,[],[],images/11.png,4,118,GL,True,0,False,3,13
118,True,1.5,structure_learning,179.67458415,unrot,0,1.20074510574,[],[],images/14.png,2,119,GL,True,0,False,4,34
119,True,1.5,structure_learning,181.179816008,unrot,0,1.39440512657,[],[],images/15.png,0,120,GL,True,0,False,5,4
120,False,1.5,structure_learning,182.685089111,unrot,90,1.37891888618,[],[],images/8.png,14,121,GL,True,2,True,1,6
121,False,1.5,structure_learning,184.191617966,-1,0,-1.0,[],[],images/7.png,11,122,GL,False,2,False,2,8
122,True,1.5,structure_learning,185.697087049,unrot,0,0.447335004807,[],[],images/1.png,12,123,GL,False,2,False,3,10
123,True,1.5,structure_learning,187.202399969,unrot,0,0.559271097183,[],[],images/7.png,11,124,GL,True,2,False,4,2
124,True,1.5,structure_learning,188.709329128,unrot,0,0.751977205276,[],[],images/13.png,10,125,GL,True,2,False,5,92
125,True,1.5,structure_learning,190.214929104,unrot,0,0.698616027832,[],[],images/9.png,13,126,GL,True,2,False,6,101
126,True,1.5,structure_learning,191.72055006,unrot,0,1.32761120796,[],[],images/1.png,12,127,GL,True,2,False,7,4
127,True,1.5,structure_learning,193.226844072,unrot,0,0.789824008942,[],[],images/8.png,14,128,GL,True,2,False,8,7
128,False,1.5,structure_learning,194.732462168,unrot,90,1.07795500755,[],[],images/7.png,11,129,GL,True,2,False,9,5
129,True,1.5,structure_learning,196.237903118,unrot,0,0.57173204422,[],[],images/1.png,12,130,GL,False,2,False,10,3
130,True,1.5,structure_learning,197.74367404,unrot,0,0.103789806366,['right'],[1.0477428436279297],images/13.png,10,131,GL,True,2,False,11,6
131,True,1.5,structure_learning,199.250028133,unrot,0,0.390211105347,[],[],images/1.png,12,132,GL,True,2,False,12,2
132,True,1.5,structure_learning,200.755433083,unrot,0,0.217916965485,['right'],[1.336380958557129],images/13.png,10,133,GL,True,2,False,13,2
133,True,1.5,structure_learning,202.260966063,unrot,0,0.544255971909,[],[],images/9.png,13,134,GL,True,2,False,14,8
134,True,1.5,structure_learning,203.766453028,unrot,0,0.32423210144,['right'],[1.322995901107788],images/13.png,10,135,GL,True,2,False,15,2
135,True,1.5,structure_learning,205.271646976,unrot,0,0.689480066299,[],[],images/1.png,12,136,GL,True,2,False,16,4
136,True,1.5,structure_learning,206.77708602,unrot,0,0.255127906799,[],[],images/9.png,13,137,GL,True,2,False,17,3
137,True,1.5,structure_learning,208.282457113,unrot,0,0.31334400177,['right'],[1.2803149223327637],images/8.png,14,138,GL,True,2,False,18,10
138,True,1.5,structure_learning,209.787777185,unrot,0,0.480551958084,[],[],images/7.png,11,139,GL,True,2,False,19,10
139,True,1.5,structure_learning,211.292757034,unrot,0,0.0462908744812,['right'],[0.9815928936004639],images/8.png,14,140,GL,True,2,False,20,2
140,True,1.5,structure_learning,212.797875166,unrot,0,0.468121051788,[],[],images/7.png,11,141,GL,True,2,False,21,2
141,False,1.5,structure_learning,214.302939177,unrot,90,0.152978181839,['right'],[1.3507862091064453],images/1.png,12,142,GL,True,2,False,22,6
142,True,1.5,structure_learning,215.808086157,unrot,0,0.551012039185,[],[],images/7.png,11,143,GL,False,2,False,23,2
143,True,1.5,structure_learning,217.313143969,unrot,0,0.243433952332,['right'],[1.2744460105895996],images/8.png,14,144,GL,True,2,False,24,4
144,True,1.5,structure_learning,218.81874299,unrot,0,0.656773805618,[],[],images/15.png,0,145,GL,True,0,True,1,25
145,True,1.5,structure_learning,220.324016094,unrot,0,0.206103086472,['right'],[1.2924470901489258],images/8.png,14,146,GL,True,2,True,1,2
146,True,1.5,structure_learning,221.829594135,unrot,0,0.691157102585,[],[],images/7.png,11,147,GL,True,2,False,2,4
147,True,1.5,structure_learning,223.33483696,unrot,0,0.224740028381,[],[],images/9.png,13,148,GL,True,2,False,3,11
148,False,1.5,structure_learning,224.840221167,unrot,90,0.130239963531,[],[],images/13.png,10,149,GL,True,2,False,4,14
149,True,1.5,structure_learning,226.346719027,unrot,0,0.251810073853,['right'],[1.4894368648529053],images/1.png,12,150,GL,False,2,False,5,8
150,True,1.5,structure_learning,227.852174997,unrot,0,1.09508013725,[],[],images/13.png,10,151,GL,True,2,False,6,2
151,True,1.5,structure_learning,229.357192993,unrot,0,0.469517230988,[],[],images/9.png,13,152,GL,True,2,False,7,4
152,True,1.5,structure_learning,230.862639189,unrot,0,0.177981853485,['right'],[1.471038818359375],images/7.png,11,153,GL,True,2,False,8,6
153,False,1.5,structure_learning,232.367810011,-1,0,-1.0,[],[],images/1.png,12,154,GL,True,2,False,9,4
154,True,1.5,structure_learning,233.873027086,unrot,0,0.0879487991333,['right'],[1.1981468200683594],images/13.png,10,155,GL,False,2,False,10,4
155,True,1.5,structure_learning,235.378220081,unrot,0,0.389798879623,[],[],images/9.png,13,156,GL,True,2,False,11,4
156,False,1.5,structure_learning,236.883829117,unrot,90,0.0189850330353,['right'],[0.9384429454803467],images/1.png,12,157,GL,True,2,False,12,3
157,True,1.5,structure_learning,238.388911009,unrot,0,0.347891807556,['right'],[1.4502568244934082],images/9.png,13,158,GL,False,2,False,13,2
158,True,1.5,structure_learning,239.899309158,unrot,0,0.86439204216,[],[],images/8.png,14,159,GL,True,2,False,14,13
159,True,1.5,structure_learning,241.404633045,unrot,0,0.231357812881,['right'],[1.2384529113769531],images/9.png,13,160,GL,True,2,False,15,2
160,True,1.5,structure_learning,242.909964085,unrot,0,0.37482714653,['right'],[1.3340320587158203],images/1.png,12,161,GL,True,2,False,16,4
161,True,1.5,structure_learning,244.415266991,unrot,0,0.405102014542,['right'],[1.126028060913086],images/9.png,13,162,GL,True,2,False,17,2
162,True,1.5,structure_learning,245.92185998,unrot,0,0.373678922653,['right'],[1.285290002822876],images/7.png,11,163,GL,True,2,False,18,10
163,True,1.5,structure_learning,247.426963091,unrot,0,0.594861984253,[],[],images/1.png,12,164,GL,True,2,False,19,3
164,True,1.5,structure_learning,248.93344903,unrot,0,0.263875007629,[],[],images/7.png,11,165,GL,True,2,False,20,2
165,True,1.5,structure_learning,250.438569069,unrot,0,0.21026301384,[],[],images/1.png,12,166,GL,True,2,False,21,2
166,True,1.5,structure_learning,251.943787098,unrot,0,-0.00101113319397,['right'],[1.2512400150299072],images/7.png,11,167,GL,True,2,False,22,2
167,True,1.5,structure_learning,253.449256182,unrot,0,0.530514001846,[],[],images/13.png,10,168,GL,True,2,False,23,13
168,True,1.5,structure_learning,254.954574108,unrot,0,0.0878908634186,['right'],[1.2700040340423584],images/2.png,9,169,GL,True,1,True,1,73
169,True,1.5,structure_learning,256.459825039,unrot,0,0.779561042786,[],[],images/6.png,8,170,GL,True,1,False,2,73
170,True,1.5,structure_learning,257.965108156,unrot,0,0.162024974823,['right'],[1.105492115020752],images/2.png,9,171,GL,True,1,False,3,2
171,True,1.5,structure_learning,259.470345974,unrot,0,0.368843078613,['right'],[1.288417100906372],images/4.png,6,172,GL,True,1,False,4,73
172,True,1.5,structure_learning,260.975630045,unrot,0,0.654848098755,[],[],images/6.png,8,173,GL,True,1,False,5,3
173,True,1.5,structure_learning,262.481547117,unrot,0,0.220016002655,[],[],images/12.png,7,174,GL,True,1,False,6,76
174,False,1.5,structure_learning,263.986812115,unrot,90,0.21439409256,['right'],[1.4594769477844238],images/6.png,8,175,GL,True,1,False,7,2
175,True,1.5,structure_learning,265.492241144,unrot,0,1.23127913475,[],[],images/12.png,7,176,GL,False,1,False,8,2
176,False,1.5,structure_learning,266.997447968,unrot,90,1.20180797577,[],[],images/6.png,8,177,GL,True,1,False,9,2
177,False,1.5,structure_learning,268.502854109,unrot,90,0.711573123932,[],[],images/4.png,6,178,GL,False,1,False,10,6
178,True,1.5,structure_learning,270.008159161,unrot,0,0.561527013779,[],[],images/12.png,7,179,GL,False,1,False,11,3
179,True,1.5,structure_learning,271.514811039,unrot,0,0.67444896698,[],[],images/3.png,5,180,GL,True,1,False,12,76
180,False,1.5,structure_learning,273.020725012,unrot,90,0.398878097534,[],[],images/4.png,6,181,GL,True,1,False,13,3
181,False,1.5,structure_learning,274.525796175,unrot,90,0.448882102966,[],[],images/6.png,8,182,GL,False,1,False,14,5
182,True,1.5,structure_learning,276.031111956,unrot,0,0.427639961243,[],[],images/4.png,6,183,GL,False,1,False,15,2
183,False,1.5,structure_learning,277.536328077,rot,0,0.819401979446,[],[],images/6.png,8,184,GL,True,1,False,16,2
184,True,1.5,structure_learning,279.042855978,unrot,0,0.693153142929,[],[],images/3.png,5,185,GL,False,1,False,17,5
185,True,1.5,structure_learning,280.548211098,unrot,0,0.528432846069,[],[],images/6.png,8,186,GL,True,1,False,18,2
186,True,1.5,structure_learning,282.05372715,unrot,0,0.340529918671,[],[],images/3.png,5,187,GL,True,1,False,19,2
187,True,1.5,structure_learning,283.558994055,unrot,0,0.342886924744,[],[],images/4.png,6,188,GL,True,1,False,20,5
188,True,1.5,structure_learning,285.064305067,unrot,0,0.257933855057,[],[],images/6.png,8,189,GL,True,1,False,21,3
189,True,1.5,structure_learning,286.56961298,unrot,0,0.124901771545,['right'],[1.3547518253326416],images/3.png,5,190,GL,True,1,False,22,3
190,True,1.5,structure_learning,288.075006008,unrot,0,0.840867042542,[],[],images/6.png,8,191,GL,True,1,False,23,2
191,True,1.5,structure_learning,289.580430031,unrot,0,0.279036045074,['right'],[1.4053800106048584],images/2.png,9,192,GL,True,1,False,24,21
192,True,1.5,structure_learning,291.085889101,unrot,0,0.92231297493,[],[],images/12.png,7,193,GL,True,1,False,25,14
193,True,1.5,structure_learning,292.592344999,unrot,0,0.34251499176,['right'],[1.484941005706787],images/3.png,5,194,GL,True,1,False,26,4
194,True,1.5,structure_learning,294.099819183,unrot,0,1.32083415985,[],[],images/6.png,8,195,GL,True,1,False,27,4
195,True,1.5,structure_learning,295.605210066,unrot,0,0.830343961716,[],[],images/3.png,5,196,GL,True,1,False,28,2
196,True,1.5,structure_learning,297.110542059,unrot,0,0.316542863846,['right'],[1.2843859195709229],images/12.png,7,197,GL,True,1,False,29,4
197,True,1.5,structure_learning,298.615801096,unrot,0,0.611204147339,[],[],images/2.png,9,198,GL,True,1,False,30,6
198,False,1.5,structure_learning,300.121317148,unrot,90,0.32014298439,[],[],images/13.png,10,199,GL,True,2,True,1,31
199,True,1.5,structure_learning,301.626358032,unrot,0,0.203706026077,[],[],images/2.png,9,200,GL,False,1,True,1,2
200,True,1.5,structure_learning,303.131520033,unrot,0,0.16700387001,['right'],[1.4128639698028564],images/12.png,7,201,GL,True,1,False,2,4
201,True,1.5,structure_learning,304.6366961,unrot,0,0.970537900925,[],[],images/6.png,8,202,GL,True,1,False,3,7
202,True,1.5,structure_learning,306.141885042,unrot,0,0.488677978516,[],[],images/4.png,6,203,GL,True,1,False,4,15
203,True,1.5,structure_learning,307.64718318,unrot,0,0.372030973434,[],[],images/6.png,8,204,GL,True,1,False,5,2
204,False,1.5,structure_learning,309.152580023,unrot,90,0.931190013885,[],[],images/2.png,9,205,GL,True,1,False,6,5
205,True,1.5,structure_learning,310.657966137,unrot,0,0.662454843521,[],[],images/12.png,7,206,GL,False,1,False,7,5
206,True,1.5,structure_learning,312.164368153,unrot,0,0.482738018036,[],[],images/4.png,6,207,GL,True,1,False,8,4
207,True,1.5,structure_learning,313.669636011,unrot,0,0.739930868149,[],[],images/3.png,5,208,GL,True,1,False,9,12
208,True,1.5,structure_learning,315.175024986,unrot,0,1.0191450119,[],[],images/6.png,8,209,GL,True,1,False,10,5
209,True,1.5,structure_learning,316.681856155,unrot,0,0.575779914856,[],[],images/4.png,6,210,GL,True,1,False,11,3
210,True,1.5,structure_learning,318.188364983,unrot,0,0.594251155853,[],[],images/2.png,9,211,GL,True,1,False,12,6
211,True,1.5,structure_learning,319.693837166,unrot,0,0.787672042847,[],[],images/4.png,6,212,GL,True,1,False,13,2
212,True,1.5,structure_learning,321.199141026,unrot,0,0.861701011658,[],[],images/6.png,8,213,GL,True,1,False,14,4
213,True,1.5,structure_learning,322.704689026,unrot,0,0.832244157791,[],[],images/3.png,5,214,GL,True,1,False,15,6
214,False,1.5,structure_learning,324.210754156,unrot,90,0.810853004456,[],[],images/12.png,7,215,GL,True,1,False,16,9
215,True,1.5,structure_learning,325.716031075,unrot,0,1.47265219688,[],[],images/3.png,5,216,GL,False,1,False,17,2
216,True,1.5,structure_learning,327.221553087,unrot,0,0.768208026886,[],[],images/4.png,6,217,GL,True,1,False,18,5
217,True,1.5,structure_learning,328.726922035,unrot,0,0.500575065613,[],[],images/3.png,5,218,GL,True,1,False,19,2
218,False,1.5,structure_learning,330.232403994,rot,0,0.67201590538,['right'],[1.2728190422058105],images/12.png,7,219,GL,True,1,False,20,4
219,False,1.5,structure_learning,331.737619162,unrot,90,0.727025985718,[],[],images/4.png,6,220,GL,False,1,False,21,3
220,False,1.5,structure_learning,333.242722988,unrot,90,0.83317399025,[],[],images/2.png,9,221,GL,False,1,False,22,10
221,True,1.5,structure_learning,334.748072147,unrot,0,0.836041927338,[],[],images/4.png,6,222,GL,False,1,False,23,2
222,True,1.5,structure_learning,336.253213167,unrot,0,0.917817115784,[],[],images/3.png,5,223,GL,True,1,False,24,5
223,True,1.5,structure_learning,337.758715153,unrot,0,0.539501905441,[],[],images/4.png,6,224,GL,True,1,False,25,2
224,True,1.5,structure_learning,339.263880968,unrot,0,0.526454925537,[],[],images/3.png,5,225,GL,True,1,False,26,2
225,True,1.5,structure_learning,340.769148111,unrot,0,0.950385093689,[],[],images/11.png,4,226,GL,True,0,True,1,108
226,True,1.5,structure_learning,342.27441597,unrot,0,0.723071098328,[],[],images/5.png,1,227,GL,True,0,False,2,121
227,True,1.5,structure_learning,343.779684067,unrot,0,0.781589031219,[],[],images/10.png,3,228,GL,True,0,False,3,111
228,True,1.5,structure_learning,345.284873009,unrot,0,0.967727899551,[],[],images/14.png,2,229,GL,True,0,False,4,110
229,True,1.5,structure_learning,346.789904118,unrot,0,0.962595939636,[],[],images/11.png,4,230,GL,True,0,False,5,4
230,True,1.5,structure_learning,348.295226097,unrot,0,0.878051996231,[],[],images/5.png,1,231,GL,True,0,False,6,4
231,True,1.5,structure_learning,349.800721169,unrot,0,0.825667858124,[],[],images/14.png,2,232,GL,True,0,False,7,3
232,False,1.5,structure_learning,351.305809975,unrot,90,0.948125123978,[],[],images/15.png,0,233,GL,True,0,False,8,88
233,True,1.5,structure_learning,352.811041117,unrot,0,1.28519892693,[],[],images/14.png,2,234,GL,False,0,False,9,2
234,True,1.5,structure_learning,354.316107988,unrot,0,0.675956964493,[],[],images/5.png,1,235,GL,True,0,False,10,4
235,True,1.5,structure_learning,355.821382999,unrot,0,1.03727889061,[],[],images/15.png,0,236,GL,True,0,False,11,3
236,True,1.5,structure_learning,357.32657218,unrot,0,0.641935110092,[],[],images/10.png,3,237,GL,True,0,False,12,9
237,True,1.5,structure_learning,358.832323074,rot,90,0.931005954742,[],[],images/15.png,0,238,GL,True,0,False,13,2
238,True,1.5,structure_learning,360.338905096,unrot,0,0.717826128006,[],[],images/10.png,3,239,GL,True,0,False,14,2
239,True,1.5,structure_learning,361.844094038,unrot,0,0.760250091553,[],[],images/11.png,4,240,GL,True,0,False,15,10
240,False,1.5,structure_learning,363.349487066,unrot,90,0.91451716423,[],[],images/14.png,2,241,GL,True,0,False,16,7
241,True,1.5,structure_learning,364.85461998,unrot,0,0.805881977081,[],[],images/10.png,3,242,GL,False,0,False,17,3
242,True,1.5,structure_learning,366.360193968,unrot,0,0.673690080643,[],[],images/5.png,1,243,GL,True,0,False,18,8
243,True,1.5,structure_learning,367.8655231,unrot,0,0.485727071762,[],[],images/11.png,4,244,GL,True,0,False,19,4
244,True,1.5,structure_learning,369.370900154,unrot,0,0.726699113846,[],[],images/3.png,5,245,GL,True,1,True,1,20
245,True,1.5,structure_learning,370.876477957,unrot,0,0.984310865402,[],[],images/12.png,7,246,GL,True,1,False,2,27
246,True,1.5,structure_learning,372.381606102,unrot,0,0.923519134521,[],[],images/2.png,9,247,GL,True,1,False,3,26
247,True,1.5,structure_learning,373.88678813,unrot,0,0.926305055618,[],[],images/6.png,8,248,GL,True,1,False,4,35
248,True,1.5,structure_learning,375.392199039,unrot,0,1.01357197762,[],[],images/12.png,7,249,GL,True,1,False,5,3
249,True,1.5,structure_learning,376.900169134,rot,90,1.22454309464,[],[],images/2.png,9,250,GL,True,1,False,6,3
250,True,1.5,structure_learning,378.405449152,unrot,0,1.28119707108,[],[],images/6.png,8,251,GL,True,1,False,7,3
251,True,1.5,structure_learning,379.910906076,unrot,0,0.751526117325,[],[],images/3.png,5,252,GL,True,1,False,8,7
252,True,1.5,structure_learning,381.416305065,unrot,0,0.642725944519,[],[],images/11.png,4,253,GL,True,0,True,1,9
253,True,1.5,structure_learning,382.921594143,unrot,0,0.597697019577,[],[],images/10.png,3,254,GL,True,0,False,2,12
254,True,1.5,structure_learning,384.426830053,unrot,0,1.06129002571,[],[],images/15.png,0,255,GL,True,0,False,3,17
255,True,1.5,structure_learning,385.932058096,unrot,0,1.08772587776,[],[],images/10.png,3,256,GL,True,0,False,4,2
256,True,1.5,structure_learning,387.437477112,unrot,0,0.699937820435,[],[],images/5.png,1,257,GL,True,0,False,5,14
257,False,1.5,structure_learning,388.943693161,rot,0,1.12510895729,[],[],images/10.png,3,258,GL,True,0,False,6,2
258,True,1.5,structure_learning,390.449054956,unrot,0,0.920096874237,[],[],images/14.png,2,259,GL,False,0,False,7,18
259,True,1.5,structure_learning,391.954152107,unrot,0,0.94704914093,[],[],images/11.png,4,260,GL,True,0,False,8,7
260,False,1.5,structure_learning,393.459578991,rot,0,0.792680025101,[],[],images/14.png,2,261,GL,True,0,False,9,2
261,True,1.5,structure_learning,394.964642048,unrot,0,0.190041065216,[],[],images/10.png,3,262,GL,False,0,False,10,4
262,True,1.5,structure_learning,396.469964027,unrot,0,0.415005922318,[],[],images/14.png,2,263,GL,True,0,False,11,2
263,True,1.5,structure_learning,397.975181103,unrot,0,0.465280056,[],[],images/10.png,3,264,GL,True,0,False,12,2
264,True,1.5,structure_learning,399.480550051,unrot,0,0.643005132675,[],[],images/11.png,4,265,GL,True,0,False,13,5
265,False,1.5,structure_learning,400.98557806,unrot,90,0.542734861374,[],[],images/10.png,3,266,GL,True,0,False,14,2
266,False,1.5,structure_learning,402.490628958,unrot,90,0.974939107895,[],[],images/14.png,2,267,GL,False,0,False,15,4
267,True,1.5,structure_learning,403.99567008,unrot,0,1.01016187668,[],[],images/15.png,0,268,GL,False,0,False,16,13
268,True,1.5,structure_learning,405.500749111,unrot,0,0.854199886322,[],[],images/14.png,2,269,GL,True,0,False,17,2
269,True,1.5,structure_learning,407.005758047,unrot,0,0.785084009171,[],[],images/15.png,0,270,GL,True,0,False,18,2
270,True,1.5,structure_learning,408.510944128,unrot,0,0.549399852753,[],[],images/10.png,3,271,GL,True,0,False,19,5
271,True,1.5,structure_learning,410.016239166,unrot,0,0.774858951569,[],[],images/14.png,2,272,GL,True,0,False,20,3
272,True,1.5,structure_learning,411.521368027,unrot,0,0.793174028397,[],[],images/15.png,0,273,GL,True,0,False,21,3
273,True,1.5,structure_learning,413.026710033,unrot,0,0.780082941055,[],[],images/14.png,2,274,GL,True,0,False,22,2
274,True,1.5,structure_learning,414.531805992,unrot,0,0.806885957718,[],[],images/15.png,0,275,GL,True,0,False,23,2
275,True,1.5,structure_learning,416.037009954,unrot,0,0.626683950424,[],[],images/5.png,1,276,GL,True,0,False,24,19
276,True,1.5,structure_learning,417.542436123,unrot,0,0.669200897217,[],[],images/14.png,2,277,GL,True,0,False,25,3
277,True,1.5,structure_learning,419.047643185,unrot,0,0.614985942841,[],[],images/11.png,4,278,GL,True,0,False,26,13
278,True,1.5,structure_learning,420.554560184,unrot,0,0.776512861252,[],[],images/14.png,2,279,GL,True,0,False,27,2
279,True,1.5,structure_learning,422.059710979,unrot,0,0.549400091171,[],[],images/10.png,3,280,GL,True,0,False,28,9
280,True,1.5,structure_learning,423.564774036,rot,90,0.728422880173,[],[],images/15.png,0,281,GL,True,0,False,29,6
281,False,1.5,structure_learning,425.069890976,unrot,90,0.642497062683,[],[],images/5.png,1,282,GL,True,0,False,30,6
282,True,1.5,structure_learning,426.574957132,unrot,0,0.947431087494,[],[],images/11.png,4,283,GL,False,0,False,31,5
283,False,1.5,structure_learning,428.080389977,unrot,90,0.862825870514,[],[],images/5.png,1,284,GL,True,0,False,32,2
284,True,1.5,structure_learning,429.585517168,unrot,0,0.667168140411,[],[],images/11.png,4,285,GL,False,0,False,33,2
285,True,1.5,structure_learning,431.090600967,unrot,0,0.90078997612,[],[],images/5.png,1,286,GL,True,0,False,34,2
286,True,1.5,structure_learning,432.595761061,unrot,0,0.768593072891,[],[],images/14.png,2,287,GL,True,0,False,35,8
287,True,1.5,structure_learning,434.100808144,unrot,0,0.509006023407,[],[],images/10.png,3,288,GL,True,0,False,36,8
288,True,1.5,structure_learning,435.606068134,unrot,0,0.806009054184,[],[],images/5.png,1,289,GL,True,0,False,37,3
289,True,1.5,structure_learning,437.111194134,unrot,0,0.602600097656,[],[],images/10.png,3,290,GL,True,0,False,38,2
290,True,1.5,structure_learning,438.616286039,unrot,0,0.676734924316,[],[],images/11.png,4,291,GL,True,0,False,39,6
291,True,1.5,structure_learning,440.121582031,unrot,0,0.727303028107,[],[],images/14.png,2,292,GL,True,0,False,40,5
292,True,1.5,structure_learning,441.626985073,unrot,0,0.5953810215,[],[],images/11.png,4,293,GL,True,0,False,41,2
293,False,1.5,structure_learning,443.132132053,unrot,90,0.725702047348,[],[],images/5.png,1,294,GL,True,0,False,42,5
294,True,1.5,structure_learning,444.637362003,unrot,0,0.839792013168,[],[],images/15.png,0,295,GL,False,0,False,43,14
295,True,1.5,structure_learning,446.142573118,unrot,0,0.571917057037,[],[],images/5.png,1,296,GL,True,0,False,44,2
296,True,1.5,structure_learning,447.647953033,unrot,0,0.590090036392,[],[],images/11.png,4,297,GL,True,0,False,45,4
297,True,1.5,structure_learning,449.153294086,unrot,0,0.649030923843,[],[],images/5.png,1,298,GL,True,0,False,46,2
298,True,1.5,structure_learning,450.658615112,unrot,0,0.571825027466,[],[],images/10.png,3,299,GL,True,0,False,47,9
299,True,1.5,structure_learning,452.16395402,unrot,0,0.693741083145,[],[],images/14.png,2,300,GL,True,0,False,48,8
300,True,1.5,structure_learning,453.669115067,unrot,0,0.537969112396,[],[],images/10.png,3,301,GL,True,0,False,49,2
301,True,1.5,structure_learning,455.174203157,unrot,0,0.540849924088,[],[],images/5.png,1,302,GL,True,0,False,50,4
302,False,1.5,structure_learning,456.679543018,unrot,90,1.21111917496,[],[],images/15.png,0,303,GL,True,0,False,51,8
303,True,1.5,structure_learning,458.184592009,unrot,0,0.697312116623,[],[],images/14.png,2,304,GL,False,0,False,52,4
304,True,1.5,structure_learning,459.689768076,unrot,0,0.620948076248,[],[],images/10.png,3,305,GL,True,0,False,53,4
305,True,1.5,structure_learning,461.194933176,unrot,0,0.742860078812,[],[],images/14.png,2,306,GL,True,0,False,54,2
306,True,1.5,structure_learning,462.699978113,unrot,0,0.530822992325,[],[],images/10.png,3,307,GL,True,0,False,55,2
307,False,1.5,structure_learning,464.205259085,rot,0,0.638720989227,[],[],images/15.png,0,308,GL,True,0,False,56,5
308,True,1.5,structure_learning,465.710281134,unrot,0,0.250643014908,[],[],images/10.png,3,309,GL,False,0,False,57,2
309,True,1.5,structure_learning,467.215363026,rot,90,1.05013298988,[],[],images/15.png,0,310,GL,True,0,False,58,2
310,True,1.5,structure_learning,468.720468998,unrot,0,0.527238130569,[],[],images/8.png,14,311,GL,True,2,True,1,152
311,True,1.5,structure_learning,470.225744009,unrot,0,0.498087882996,[],[],images/9.png,13,312,GL,True,2,False,2,150
312,False,1.5,structure_learning,471.731189013,unrot,90,0.4613468647,[],[],images/8.png,14,313,GL,True,2,False,3,2
313,True,1.5,structure_learning,473.236384153,unrot,0,0.996752023697,[],[],images/7.png,11,314,GL,False,2,False,4,147
314,True,1.5,structure_learning,474.741544962,unrot,0,1.02375793457,[],[],images/1.png,12,315,GL,True,2,False,5,149
315,True,1.5,structure_learning,476.246761084,unrot,0,0.621208190918,[],[],images/9.png,13,316,GL,True,2,False,6,4
316,True,1.5,structure_learning,477.752272129,unrot,0,0.838661909103,[],[],images/7.png,11,317,GL,True,2,False,7,3
317,False,1.5,structure_learning,479.25752902,unrot,90,0.547318935394,[],[],images/9.png,13,318,GL,True,2,False,8,2
318,False,1.5,structure_learning,480.762876034,unrot,90,1.45645999908,[],[],images/8.png,14,319,GL,False,2,False,9,6
319,False,1.5,structure_learning,482.268032074,rot,0,1.45284605026,[],[],images/1.png,12,320,GL,False,2,False,10,5
320,True,1.5,structure_learning,483.773509979,unrot,0,1.01714897156,[],[],images/13.png,10,321,GL,False,2,False,11,122
321,True,1.5,structure_learning,485.278692961,unrot,0,0.551290988922,[],[],images/2.png,9,322,GL,True,1,True,1,72
322,True,1.5,structure_learning,486.784063101,unrot,0,0.57798910141,[],[],images/13.png,10,323,GL,True,2,True,1,2
323,True,1.5,structure_learning,488.289260149,unrot,0,0.628439903259,[],[],images/2.png,9,324,GL,True,1,True,1,2
324,True,1.5,structure_learning,489.794658184,unrot,0,0.798278093338,[],[],images/6.png,8,325,GL,True,1,False,2,74
325,False,1.5,structure_learning,491.300431013,unrot,90,0.983060836792,[],[],images/12.png,7,326,GL,True,1,False,3,77
326,False,1.5,structure_learning,492.806818008,unrot,90,0.64421916008,[],[],images/4.png,6,327,GL,False,1,False,4,103
327,False,1.5,structure_learning,494.312113047,rot,0,0.886579036713,[],[],images/3.png,5,328,GL,False,1,False,5,76
328,False,1.5,structure_learning,495.81757617,unrot,90,0.0836849212646,['right'],[0.8605611324310303],images/6.png,8,329,GL,False,1,False,6,4
329,True,1.5,structure_learning,497.324109077,unrot,0,1.06194496155,[],[],images/4.png,6,330,GL,False,1,False,7,3
330,True,1.5,structure_learning,498.82961297,unrot,0,0.691283941269,[],[],images/3.png,5,331,GL,True,1,False,8,3
331,False,1.5,structure_learning,500.335088015,unrot,90,0.668975114822,[],[],images/11.png,4,332,GL,True,0,True,1,35
332,False,1.5,structure_learning,501.841778994,unrot,90,0.561188936234,[],[],images/10.png,3,333,GL,False,0,False,2,24
333,True,1.5,structure_learning,503.346887112,unrot,0,0.834381103516,[],[],images/11.png,4,334,GL,False,0,False,3,2
334,True,1.5,structure_learning,8.10623168945e-05,unrot,0,0.769382953644,[],[],images/3.png,5,335,GL,True,1,True,1,4
335,False,1.5,structure_learning,1.50975799561,unrot,90,0.589828968048,[],[],images/11.png,4,336,GL,True,0,True,1,2
336,False,1.5,structure_learning,3.01500296593,unrot,90,0.767688989639,[],[],images/3.png,5,337,GL,False,1,True,1,2
337,True,1.5,structure_learning,4.52022409439,unrot,0,1.19186592102,[],[],images/6.png,8,338,GL,False,1,False,2,9
338,True,1.5,structure_learning,6.02571392059,unrot,0,0.701992988586,[],[],images/2.png,9,339,GL,True,1,False,3,15
339,False,1.5,structure_learning,7.53089690208,rot,0,1.18316102028,[],[],images/6.png,8,340,GL,True,1,False,4,2
340,True,1.5,structure_learning,9.03629302979,unrot,0,0.56417798996,[],[],images/2.png,9,341,GL,False,1,False,5,2
341,True,1.5,structure_learning,10.5417149067,unrot,0,0.77378821373,[],[],images/4.png,6,342,GL,True,1,False,6,12
342,False,1.5,structure_learning,12.046959877,unrot,90,0.919542074203,[],[],images/3.png,5,343,GL,True,1,False,7,6
343,True,1.5,structure_learning,13.5523478985,unrot,0,0.82718706131,[],[],images/4.png,6,344,GL,False,1,False,8,2
344,False,1.5,structure_learning,15.0576519966,rot,0,0.93473482132,[],[],images/12.png,7,345,GL,True,1,False,9,19
345,True,1.5,structure_learning,16.5627760887,unrot,0,0.713478088379,[],[],images/2.png,9,346,GL,False,1,False,10,5
346,True,1.5,structure_learning,18.0680820942,unrot,0,0.811652898788,[],[],images/12.png,7,347,GL,True,1,False,11,2
347,True,1.5,structure_learning,19.5733420849,unrot,0,0.591187953949,[],[],images/3.png,5,348,GL,True,1,False,12,5
348,True,1.5,structure_learning,21.0787348747,unrot,0,0.792872190475,[],[],images/12.png,7,349,GL,True,1,False,13,2
349,True,1.5,structure_learning,22.583935976,unrot,0,0.604398012161,[],[],images/2.png,9,350,GL,True,1,False,14,4
350,True,1.5,structure_learning,24.0892150402,rot,90,1.10916900635,[],[],images/4.png,6,351,GL,True,1,False,15,7
351,True,1.5,structure_learning,25.5946409702,unrot,0,0.856383085251,[],[],images/6.png,8,352,GL,True,1,False,16,12
352,True,1.5,structure_learning,27.09988904,unrot,0,1.08943796158,[],[],images/4.png,6,353,GL,True,1,False,17,2
353,True,1.5,structure_learning,28.6049659252,rot,90,1.14923405647,[],[],images/2.png,9,354,GL,True,1,False,18,4
354,True,1.5,structure_learning,30.1101949215,unrot,0,0.721364974976,[],[],images/13.png,10,355,GL,True,2,True,1,32
355,True,1.5,structure_learning,31.615598917,unrot,0,0.889347076416,[],[],images/2.png,9,356,GL,True,1,True,1,2
356,True,1.5,structure_learning,33.122289896,rot,90,1.2111749649,[],[],images/4.png,6,357,GL,True,1,False,2,4
357,True,1.5,structure_learning,34.6277968884,unrot,0,0.735435009003,[],[],images/6.png,8,358,GL,True,1,False,3,6
358,True,1.5,structure_learning,36.1332199574,unrot,0,0.79230594635,[],[],images/4.png,6,359,GL,True,1,False,4,2
359,True,1.5,structure_learning,37.6396141052,unrot,0,0.834974050522,[],[],images/12.png,7,360,GL,True,1,False,5,11
360,True,1.5,structure_learning,39.1448791027,unrot,0,0.900537967682,[],[],images/3.png,5,361,GL,True,1,False,6,13
361,True,1.5,structure_learning,40.6503639221,unrot,0,0.686965942383,[],[],images/4.png,6,362,GL,True,1,False,7,3
362,False,1.5,structure_learning,42.1571369171,unrot,90,1.05515003204,[],[],images/2.png,9,363,GL,True,1,False,8,7
363,True,1.5,structure_learning,43.66238904,unrot,0,0.866837978363,[],[],images/4.png,6,364,GL,False,1,False,9,2
364,True,1.5,structure_learning,45.1676049232,unrot,0,0.853554964066,[],[],images/2.png,9,365,GL,True,1,False,10,2
365,True,1.5,structure_learning,46.6729669571,unrot,0,0.896440029144,[],[],images/13.png,10,366,GL,True,2,True,1,11
366,True,1.5,structure_learning,48.1781570911,unrot,0,0.676735162735,[],[],images/2.png,9,367,GL,True,1,True,1,2
367,True,1.5,structure_learning,49.6834580898,unrot,0,0.901880979538,[],[],images/13.png,10,368,GL,True,2,True,1,2
368,True,1.5,structure_learning,51.1886770725,rot,90,0.755337953568,[],[],images/2.png,9,369,GL,True,1,True,1,2
369,True,1.5,structure_learning,52.6938130856,unrot,0,0.859727859497,[],[],images/6.png,8,370,GL,True,1,False,2,12
370,True,1.5,structure_learning,54.1992359161,unrot,0,1.10811805725,[],[],images/3.png,5,371,GL,True,1,False,3,10
371,False,1.5,structure_learning,55.7056589127,unrot,90,0.753160953522,[],[],images/11.png,4,372,GL,True,0,True,1,36
372,False,1.5,structure_learning,57.2111310959,unrot,90,0.979179859161,[],[],images/14.png,2,373,GL,False,0,False,2,67
373,False,1.5,structure_learning,58.7162699699,rot,0,0.753091096878,[],[],images/11.png,4,374,GL,False,0,False,3,2
374,True,1.5,structure_learning,60.2215299606,unrot,0,0.126625061035,[],[],images/5.png,1,375,GL,False,0,False,4,73
375,True,1.5,structure_learning,61.7266919613,unrot,0,0.829493999481,[],[],images/15.png,0,376,GL,True,0,False,5,66
376,True,1.5,structure_learning,63.2317919731,unrot,0,0.840198993683,[],[],images/10.png,3,377,GL,True,0,False,6,44
377,False,1.5,structure_learning,64.7369980812,rot,0,1.30570006371,[],[],images/15.png,0,378,GL,True,0,False,7,2
378,True,1.5,structure_learning,66.2422719002,unrot,0,0.72585105896,[],[],images/10.png,3,379,GL,False,0,False,8,2
379,True,1.5,structure_learning,67.748914957,unrot,0,0.72878909111,[],[],images/15.png,0,380,GL,True,0,False,9,2
380,False,1.5,structure_learning,69.2538950443,unrot,90,0.565277099609,[],[],images/8.png,14,381,GL,True,2,True,1,62
381,True,1.5,structure_learning,70.759073019,unrot,0,0.686939954758,[],[],images/9.png,13,382,GL,False,2,False,2,64
382,True,1.5,structure_learning,72.2642688751,unrot,0,0.705621957779,[],[],images/7.png,11,383,GL,True,2,False,3,66
383,True,1.5,structure_learning,73.7695920467,unrot,0,1.13733792305,[],[],images/8.png,14,384,GL,True,2,False,4,3
384,True,1.5,structure_learning,75.275028944,unrot,0,0.583525180817,[],[],images/9.png,13,385,GL,True,2,False,5,3
385,True,1.5,structure_learning,76.7803349495,unrot,0,0.80066204071,[],[],images/1.png,12,386,GL,True,2,False,6,66
386,True,1.5,structure_learning,78.2855710983,unrot,0,0.8595662117,[],[],images/13.png,10,387,GL,True,2,False,7,19
387,True,1.5,structure_learning,79.7905778885,unrot,0,0.536644935608,[],[],images/9.png,13,388,GL,True,2,False,8,3
388,True,1.5,structure_learning,81.2958850861,unrot,0,0.808940887451,[],[],images/13.png,10,389,GL,True,2,False,9,2
389,True,1.5,structure_learning,82.801388979,unrot,0,0.90709400177,[],[],images/7.png,11,390,GL,True,2,False,10,7
390,True,1.5,structure_learning,84.3068299294,unrot,0,1.19560980797,[],[],images/1.png,12,391,GL,True,2,False,11,5
391,True,1.5,structure_learning,85.8121249676,unrot,0,0.934935092926,[],[],images/13.png,10,392,GL,True,2,False,12,3
392,True,1.5,structure_learning,87.31873703,unrot,0,1.32660293579,[],[],images/2.png,9,393,GL,True,1,True,1,24
393,True,1.5,structure_learning,88.8240730762,unrot,0,1.00248408318,[],[],images/12.png,7,394,GL,True,1,False,2,34
394,True,1.5,structure_learning,90.3305909634,unrot,0,0.812750101089,[],[],images/6.png,8,395,GL,True,1,False,3,25
395,True,1.5,structure_learning,91.8376460075,unrot,0,0.672350168228,[],[],images/12.png,7,396,GL,True,1,False,4,2
396,False,1.5,structure_learning,93.342977047,-1,0,-1.0,[],[],images/2.png,9,397,GL,True,1,False,5,4
397,True,1.5,structure_learning,94.848115921,unrot,0,0.147454977036,['left'],[1.4024240970611572],images/6.png,8,398,GL,False,1,False,6,3
398,True,1.5,structure_learning,96.353605032,unrot,0,0.863348007202,[],[],images/3.png,5,399,GL,True,1,False,7,28
399,True,1.5,structure_learning,97.8587548733,unrot,0,1.20736503601,[],[],images/6.png,8,400,GL,True,1,False,8,2
400,True,1.5,structure_learning,99.364000082,unrot,0,0.773249149323,[],[],images/12.png,7,401,GL,True,1,False,9,5
401,True,1.5,structure_learning,100.869364023,unrot,0,0.656507015228,[],[],images/4.png,6,402,GL,True,1,False,10,38
402,True,1.5,structure_learning,102.374720097,unrot,0,0.873199224472,[],[],images/3.png,5,403,GL,True,1,False,11,4
403,False,1.5,structure_learning,103.880045891,unrot,90,0.754620075226,[],[],images/11.png,4,404,GL,True,0,True,1,30
404,True,1.5,structure_learning,105.386945009,unrot,0,1.22409510612,[],[],images/3.png,5,405,GL,False,1,True,1,2
405,True,1.5,structure_learning,106.893629074,rot,90,0.949262142181,[],[],images/12.png,7,406,GL,True,1,False,2,5
406,True,1.5,structure_learning,108.398988008,rot,90,0.99804186821,[],[],images/6.png,8,407,GL,True,1,False,3,7
407,True,1.5,structure_learning,109.905505896,unrot,0,0.66490483284,[],[],images/3.png,5,408,GL,True,1,False,4,3
408,True,1.5,structure_learning,111.410958052,unrot,0,0.738023042679,[],[],images/6.png,8,409,GL,True,1,False,5,2
409,True,1.5,structure_learning,112.916303873,unrot,0,0.756176948547,[],[],images/2.png,9,410,GL,True,1,False,6,13
410,True,1.5,structure_learning,114.421575069,unrot,0,0.599572896957,[],[],images/13.png,10,411,GL,True,2,True,1,19
411,True,1.5,structure_learning,115.926733017,unrot,0,0.68922495842,[],[],images/1.png,12,412,GL,True,2,False,2,21
412,True,1.5,structure_learning,117.431986094,unrot,0,0.604689121246,[],[],images/13.png,10,413,GL,True,2,False,3,2
413,True,1.5,structure_learning,118.936959982,unrot,0,0.614703893661,[],[],images/2.png,9,414,GL,True,1,True,1,4
414,True,1.5,structure_learning,120.442277908,unrot,0,1.01425290108,[],[],images/12.png,7,415,GL,True,1,False,2,9
415,True,1.5,structure_learning,121.94746995,rot,90,0.819333076477,[],[],images/4.png,6,416,GL,True,1,False,3,14
416,False,1.5,structure_learning,123.452692986,rot,0,1.05220293999,[],[],images/6.png,8,417,GL,True,1,False,4,8
417,True,1.5,structure_learning,124.957998991,unrot,0,0.902164936066,[],[],images/12.png,7,418,GL,False,1,False,5,3
418,True,1.5,structure_learning,126.463159084,unrot,0,0.824755907059,[],[],images/3.png,5,419,GL,True,1,False,6,11
419,True,1.5,structure_learning,127.968502998,unrot,0,0.675894975662,[],[],images/11.png,4,420,GL,True,0,True,1,16
420,False,1.5,structure_learning,129.473876953,unrot,90,0.893439054489,[],[],images/14.png,2,421,GL,True,0,False,2,48
421,True,1.5,structure_learning,130.978885889,unrot,0,0.609898090363,[],[],images/5.png,1,422,GL,False,0,False,3,47
422,True,1.5,structure_learning,132.484148979,unrot,0,0.858616113663,[],[],images/14.png,2,423,GL,True,0,False,4,2
423,True,1.5,structure_learning,133.989319086,unrot,0,0.741763830185,[],[],images/11.png,4,424,GL,True,0,False,5,4
424,True,1.5,structure_learning,135.494719028,unrot,0,0.569494962692,[],[],images/10.png,3,425,GL,True,0,False,6,46
425,False,1.5,structure_learning,136.999847889,unrot,90,0.82654094696,[],[],images/11.png,4,426,GL,True,0,False,7,2
426,True,1.5,structure_learning,138.505152941,unrot,0,1.25020194054,[],[],images/14.png,2,427,GL,False,0,False,8,4
427,False,1.5,structure_learning,140.010262966,unrot,90,0.93372297287,[],[],images/11.png,4,428,GL,True,0,False,9,2
428,False,1.5,structure_learning,141.517093897,unrot,90,0.538423061371,[],[],images/5.png,1,429,GL,False,0,False,10,7
429,True,1.5,structure_learning,143.022403002,unrot,0,1.16893410683,[],[],images/15.png,0,430,GL,False,0,False,11,50
430,True,1.5,structure_learning,144.527640104,unrot,0,0.813727140427,[],[],images/8.png,14,431,GL,True,2,True,1,47
431,True,1.5,structure_learning,146.032995939,unrot,0,0.832075834274,[],[],images/1.png,12,432,GL,True,2,False,2,20
432,True,1.5,structure_learning,147.538491011,unrot,0,0.762853145599,[],[],images/9.png,13,433,GL,True,2,False,3,45
433,True,1.5,structure_learning,149.043934107,unrot,0,0.781145095825,[],[],images/1.png,12,434,GL,True,2,False,4,2
434,True,1.5,structure_learning,150.549244881,unrot,0,0.608936071396,[],[],images/9.png,13,435,GL,True,2,False,5,2
435,True,1.5,structure_learning,152.054358959,unrot,0,0.730623006821,[],[],images/7.png,11,436,GL,True,2,False,6,46
436,False,1.5,structure_learning,153.559415102,unrot,90,0.71706199646,[],[],images/8.png,14,437,GL,True,2,False,7,6
437,True,1.5,structure_learning,155.064656019,unrot,0,0.537094116211,[],[],images/9.png,13,438,GL,False,2,False,8,3
438,True,1.5,structure_learning,156.569943905,unrot,0,0.706700801849,[],[],images/13.png,10,439,GL,True,2,False,9,26
439,False,1.5,structure_learning,158.074979067,unrot,90,0.558166027069,[],[],images/9.png,13,440,GL,True,2,False,10,2
440,True,1.5,structure_learning,159.580076933,unrot,0,0.862706184387,[],[],images/1.png,12,441,GL,False,2,False,11,7
441,True,1.5,structure_learning,161.085407972,unrot,0,0.872649908066,[],[],images/8.png,14,442,GL,True,2,False,12,5
442,True,1.5,structure_learning,162.590775013,unrot,0,0.978590011597,[],[],images/15.png,0,443,GL,True,0,True,1,13
443,False,1.5,structure_learning,164.095987082,unrot,90,0.734855890274,[],[],images/10.png,3,444,GL,True,0,False,2,19
444,True,1.5,structure_learning,165.601279974,unrot,0,1.01431512833,[],[],images/15.png,0,445,GL,False,0,False,3,2
445,True,1.5,structure_learning,167.107841015,unrot,0,0.770483016968,[],[],images/5.png,1,446,GL,True,0,False,4,17
446,False,1.5,structure_learning,168.613229036,unrot,90,0.676280975342,[],[],images/11.png,4,447,GL,True,0,False,5,19
447,True,1.5,structure_learning,170.119958878,unrot,0,0.821920156479,[],[],images/14.png,2,448,GL,False,0,False,6,21
448,True,1.5,structure_learning,171.625247955,unrot,0,0.601896047592,[],[],images/10.png,3,449,GL,True,0,False,7,5
449,True,1.5,structure_learning,173.130620003,unrot,0,1.04115390778,[],[],images/5.png,1,450,GL,True,0,False,8,4
450,True,1.5,structure_learning,174.6358881,unrot,0,0.7728099823,[],[],images/10.png,3,451,GL,True,0,False,9,2
451,True,1.5,structure_learning,176.141401052,unrot,0,0.822985887527,[],[],images/11.png,4,452,GL,True,0,False,10,5
452,True,1.5,structure_learning,177.646836996,unrot,0,1.26214003563,[],[],images/3.png,5,453,GL,True,1,True,1,34
453,True,1.5,structure_learning,179.152246952,unrot,0,0.866985082626,[],[],images/4.png,6,454,GL,True,1,False,2,38
454,False,1.5,structure_learning,180.657485962,rot,0,1.02155804634,[],[],images/2.png,9,455,GL,True,1,False,3,41
455,True,1.5,structure_learning,182.162977934,unrot,0,0.521837949753,[],[],images/13.png,10,456,GL,False,2,True,1,17
456,True,1.5,structure_learning,183.668421984,unrot,0,0.532377004623,[],[],images/9.png,13,457,GL,True,2,False,2,17
457,True,1.5,structure_learning,185.173738003,unrot,0,0.772989034653,[],[],images/1.png,12,458,GL,True,2,False,3,17
458,True,1.5,structure_learning,186.679107904,unrot,0,0.862976074219,[],[],images/8.png,14,459,GL,True,2,False,4,17
459,True,1.5,structure_learning,188.184686899,unrot,0,0.476446151733,[],[],images/9.png,13,460,GL,True,2,False,5,3
460,True,1.5,structure_learning,189.690214872,unrot,0,0.621849060059,[],[],images/7.png,11,461,GL,True,2,False,6,25
461,True,1.5,structure_learning,191.195542097,unrot,0,0.520040035248,[],[],images/9.png,13,462,GL,True,2,False,7,2
462,True,1.5,structure_learning,192.702075958,unrot,0,0.65803694725,[],[],images/8.png,14,463,GL,True,2,False,8,4
463,False,1.5,structure_learning,194.207545042,unrot,90,0.525553941727,[],[],images/9.png,13,464,GL,True,2,False,9,2
464,True,1.5,structure_learning,195.712642908,unrot,0,0.727503061295,[],[],images/7.png,11,465,GL,False,2,False,10,4
465,True,1.5,structure_learning,197.217916965,unrot,0,0.617623090744,[],[],images/13.png,10,466,GL,True,2,False,11,10
466,True,1.5,structure_learning,198.724293947,rot,90,0.749125957489,[],[],images/2.png,9,467,GL,True,1,True,1,12
467,True,1.5,structure_learning,200.229660988,unrot,0,0.820620059967,[],[],images/4.png,6,468,GL,True,1,False,2,14
468,False,1.5,structure_learning,201.73617506,rot,0,0.920187950134,[],[],images/6.png,8,469,GL,True,1,False,3,52
469,True,1.5,structure_learning,203.241460085,unrot,0,0.619091033936,[],[],images/4.png,6,470,GL,False,1,False,4,2
470,True,1.5,structure_learning,204.746720076,unrot,0,0.621495008469,[],[],images/3.png,5,471,GL,True,1,False,5,18
471,True,1.5,structure_learning,206.252021074,unrot,0,0.679826974869,[],[],images/11.png,4,472,GL,True,0,True,1,20
472,True,1.5,structure_learning,207.75733304,unrot,0,0.611289024353,[],[],images/5.png,1,473,GL,True,0,False,2,23
473,True,1.5,structure_learning,209.262576103,unrot,0,0.518687009811,[],[],images/10.png,3,474,GL,True,0,False,3,23
474,True,1.5,structure_learning,210.767986059,unrot,0,0.791825056076,[],[],images/11.png,4,475,GL,True,0,False,4,3
475,True,1.5,structure_learning,212.273303032,unrot,0,1.04076004028,[],[],images/14.png,2,476,GL,True,0,False,5,28
476,True,1.5,structure_learning,213.778623104,unrot,0,0.892404794693,[],[],images/5.png,1,477,GL,True,0,False,6,4
477,True,1.5,structure_learning,215.284071922,unrot,0,0.799629926682,[],[],images/10.png,3,478,GL,True,0,False,7,4
478,True,1.5,structure_learning,216.789349079,unrot,0,0.723067998886,[],[],images/5.png,1,479,GL,True,0,False,8,2
479,True,1.5,structure_learning,218.29441309,rot,90,0.902361154556,[],[],images/15.png,0,480,GL,True,0,False,9,35
480,True,1.5,structure_learning,219.799496889,unrot,0,0.752263069153,[],[],images/10.png,3,481,GL,True,0,False,10,3
481,True,1.5,structure_learning,221.30488205,unrot,0,0.763153076172,[],[],images/15.png,0,482,GL,True,0,False,11,2
482,True,1.5,structure_learning,222.809860945,unrot,0,0.678152084351,[],[],images/8.png,14,483,GL,True,2,True,1,20
483,True,1.5,structure_learning,224.315239906,unrot,0,0.712342023849,[],[],images/9.png,13,484,GL,True,2,False,2,20
484,True,1.5,structure_learning,225.820444107,unrot,0,0.746724843979,[],[],images/8.png,14,485,GL,True,2,False,3,2
485,True,1.5,structure_learning,227.325867891,unrot,0,0.566776990891,[],[],images/9.png,13,486,GL,True,2,False,4,2
486,True,1.5,structure_learning,228.830977917,unrot,0,0.776397943497,[],[],images/1.png,12,487,GL,True,2,False,5,29
487,True,1.5,structure_learning,230.336215973,unrot,0,0.659873962402,[],[],images/7.png,11,488,GL,True,2,False,6,23
488,False,1.5,structure_learning,231.841782093,rot,0,0.66391992569,[],[],images/9.png,13,489,GL,True,2,False,7,3
489,True,1.5,structure_learning,233.347146988,unrot,0,0.671356916428,[],[],images/13.png,10,490,GL,False,2,False,8,24
490,True,1.5,structure_learning,234.854084015,unrot,0,0.578824043274,[],[],images/1.png,12,491,GL,True,2,False,9,4
491,True,1.5,structure_learning,236.359278917,unrot,0,0.653296947479,[],[],images/13.png,10,492,GL,True,2,False,10,2
492,False,1.5,structure_learning,237.864473104,rot,0,1.11021709442,[],[],images/7.png,11,493,GL,True,2,False,11,5
493,True,1.5,structure_learning,239.369724035,unrot,0,0.7136490345,[],[],images/8.png,14,494,GL,False,2,False,12,9
494,False,1.5,structure_learning,240.87520504,rot,0,1.08328580856,[],[],images/1.png,12,495,GL,True,2,False,13,4
495,True,1.5,structure_learning,242.380579948,unrot,0,0.806110858917,[],[],images/9.png,13,496,GL,False,2,False,14,7
496,True,1.5,structure_learning,243.885883093,unrot,0,0.720812082291,[],[],images/7.png,11,497,GL,True,2,False,15,4
497,True,1.5,structure_learning,245.391180992,unrot,0,0.659604072571,[],[],images/13.png,10,498,GL,True,2,False,16,6
498,True,1.5,structure_learning,246.896396875,unrot,0,1.13917994499,[],[],images/2.png,9,499,GL,True,1,True,1,32
499,True,1.5,structure_learning,248.401663065,rot,90,0.944602012634,[],[],images/13.png,10,500,GL,True,2,True,1,2
500,True,1.5,structure_learning,249.906892061,unrot,0,0.849060058594,[],[],images/9.png,13,501,GL,True,2,False,2,5
501,False,1.5,structure_learning,251.413542986,rot,0,0.90743303299,[],[],images/7.png,11,502,GL,True,2,False,3,5
502,True,1.5,structure_learning,252.920047045,unrot,0,0.686105966568,[],[],images/13.png,10,503,GL,False,2,False,4,3
503,True,1.5,structure_learning,254.425256968,unrot,0,0.831782102585,[],[],images/1.png,12,504,GL,True,2,False,5,9
504,False,1.5,structure_learning,255.930571079,rot,0,1.40790009499,[],[],images/7.png,11,505,GL,True,2,False,6,3
505,True,1.5,structure_learning,257.435852051,unrot,0,0.693927049637,[],[],images/9.png,13,506,GL,False,2,False,7,5
506,True,1.5,structure_learning,258.941067934,unrot,0,0.681021928787,[],[],images/8.png,14,507,GL,True,2,False,8,13
507,True,1.5,structure_learning,260.446224928,unrot,0,0.866189956665,[],[],images/9.png,13,508,GL,True,2,False,9,2
508,True,1.5,structure_learning,261.951544046,unrot,0,0.813285112381,[],[],images/1.png,12,509,GL,True,2,False,10,5
509,True,1.5,structure_learning,263.456705093,unrot,0,1.30874490738,[],[],images/7.png,11,510,GL,True,2,False,11,5
510,True,1.5,structure_learning,264.96193409,rot,90,1.02540588379,[],[],images/8.png,14,511,GL,True,2,False,12,4
511,False,1.5,structure_learning,266.468528986,unrot,90,0.69295501709,[],[],images/1.png,12,512,GL,True,2,False,13,3
512,False,1.5,structure_learning,267.973831892,rot,0,0.832161903381,[],[],images/7.png,11,513,GL,False,2,False,14,3
513,True,1.5,structure_learning,269.478991032,unrot,0,0.555382013321,[],[],images/9.png,13,514,GL,False,2,False,15,6
514,True,1.5,structure_learning,270.984404087,unrot,0,0.637449979782,[],[],images/13.png,10,515,GL,True,2,False,16,12
515,True,1.5,structure_learning,272.489553928,unrot,0,0.775366067886,[],[],images/9.png,13,516,GL,True,2,False,17,2
516,True,1.5,structure_learning,273.99473691,unrot,0,0.753900051117,[],[],images/1.png,12,517,GL,True,2,False,18,5
517,True,1.5,structure_learning,275.500581026,unrot,0,0.565921068192,[],[],images/8.png,14,518,GL,True,2,False,19,7
518,True,1.5,structure_learning,277.005872011,rot,90,1.03908610344,[],[],images/7.png,11,519,GL,True,2,False,20,6
519,True,1.5,structure_learning,278.511202097,unrot,0,0.674522161484,[],[],images/13.png,10,520,GL,True,2,False,21,5
520,True,1.5,structure_learning,280.016547918,unrot,0,0.780738115311,[],[],images/9.png,13,521,GL,True,2,False,22,5
521,True,1.5,structure_learning,281.521816015,unrot,0,0.656266927719,[],[],images/13.png,10,522,GL,True,2,False,23,2
522,True,1.5,structure_learning,283.027115107,unrot,0,1.04863905907,[],[],images/1.png,12,523,GL,True,2,False,24,6
523,False,1.5,structure_learning,284.532368898,unrot,90,1.03560805321,[],[],images/7.png,11,524,GL,True,2,False,25,5
524,True,1.5,structure_learning,286.037549019,unrot,0,0.680443048477,[],[],images/8.png,14,525,GL,False,2,False,26,7
525,True,1.5,structure_learning,287.543118,unrot,0,0.579396009445,[],[],images/9.png,13,526,GL,True,2,False,27,5
526,True,1.5,structure_learning,289.048465014,rot,90,0.591578960419,[],[],images/13.png,10,527,GL,True,2,False,28,5
527,True,1.5,structure_learning,290.553561926,unrot,0,0.592430114746,[],[],images/9.png,13,528,GL,True,2,False,29,2
528,True,1.5,structure_learning,292.058894873,unrot,0,0.610936164856,[],[],images/13.png,10,529,GL,True,2,False,30,2
529,True,1.5,structure_learning,293.564152956,unrot,0,0.748926877975,[],[],images/1.png,12,530,GL,True,2,False,31,7
530,True,1.5,structure_learning,295.069243908,unrot,0,0.688249111176,[],[],images/8.png,14,531,GL,True,2,False,32,6
531,True,1.5,structure_learning,296.574673891,unrot,0,0.88924908638,[],[],images/15.png,0,532,GL,True,0,True,1,50
532,True,1.5,structure_learning,298.079830885,unrot,0,0.660928010941,[],[],images/10.png,3,533,GL,True,0,False,2,52
533,False,1.5,structure_learning,299.585465908,rot,0,1.02127695084,[],[],images/14.png,2,534,GL,True,0,False,3,58
534,False,1.5,structure_learning,301.091820955,unrot,90,0.488584041595,['left'],[1.1395280361175537],images/5.png,1,535,GL,False,0,False,4,56
535,True,1.5,structure_learning,302.598330975,unrot,0,0.53658413887,[],[],images/11.png,4,536,GL,False,0,False,5,61
536,False,1.5,structure_learning,304.103660107,unrot,90,0.769175052643,[],[],images/3.png,5,537,GL,True,1,True,1,66
537,True,1.5,structure_learning,305.609159946,unrot,0,0.635881900787,[],[],images/11.png,4,538,GL,False,0,True,1,2
538,True,1.5,structure_learning,307.114749908,unrot,0,0.551259994507,[],[],images/10.png,3,539,GL,True,0,False,2,6
539,False,1.5,structure_learning,308.619997978,unrot,90,0.648869037628,[],[],images/14.png,2,540,GL,True,0,False,3,6
540,True,1.5,structure_learning,310.125504971,unrot,0,0.865812063217,[],[],images/15.png,0,541,GL,False,0,False,4,9
541,True,1.5,structure_learning,311.630716085,unrot,0,0.64586186409,[],[],images/8.png,14,542,GL,True,2,True,1,11
542,True,1.5,structure_learning,313.136086941,rot,90,0.705552101135,[],[],images/15.png,0,543,GL,True,0,True,1,2
543,True,1.5,structure_learning,314.641196966,rot,90,0.851378917694,[],[],images/8.png,14,544,GL,True,2,True,1,2
544,True,1.5,structure_learning,316.146584988,unrot,0,0.908192873001,[],[],images/1.png,12,545,GL,True,2,False,2,15
545,True,1.5,structure_learning,317.651812077,unrot,0,0.807153224945,[],[],images/8.png,14,546,GL,True,2,False,3,2
546,True,1.5,structure_learning,319.157293081,unrot,0,0.675505876541,[],[],images/9.png,13,547,GL,True,2,False,4,19
547,True,1.5,structure_learning,320.662492037,unrot,0,0.637564897537,[],[],images/1.png,12,548,GL,True,2,False,5,3
548,True,1.5,structure_learning,322.167813063,unrot,0,0.695483207703,[],[],images/8.png,14,549,GL,True,2,False,6,3
549,True,1.5,structure_learning,323.673110008,unrot,0,0.801372051239,[],[],images/15.png,0,550,GL,True,0,True,1,7
550,True,1.5,structure_learning,325.178303003,unrot,0,0.724848985672,[],[],images/8.png,14,551,GL,True,2,True,1,2
551,False,1.5,structure_learning,326.683605909,unrot,90,0.72745513916,[],[],images/1.png,12,552,GL,True,2,False,2,4
552,True,1.5,structure_learning,328.188833952,unrot,0,0.539454936981,[],[],images/9.png,13,553,GL,False,2,False,3,6
553,True,1.5,structure_learning,329.694060087,unrot,0,0.669226169586,[],[],images/13.png,10,554,GL,True,2,False,4,25
554,True,1.5,structure_learning,331.199356079,unrot,0,0.520572900772,[],[],images/9.png,13,555,GL,True,2,False,5,2
555,True,1.5,structure_learning,332.704787016,unrot,0,0.665865898132,[],[],images/8.png,14,556,GL,True,2,False,6,5
556,True,1.5,structure_learning,334.210263014,unrot,0,1.05785703659,[],[],images/15.png,0,557,GL,True,0,True,1,7
557,True,1.5,structure_learning,335.715333939,unrot,0,0.607637166977,[],[],images/8.png,14,558,GL,True,2,True,1,2
558,True,1.5,structure_learning,337.220732927,unrot,0,0.506755113602,[],[],images/9.png,13,559,GL,True,2,False,2,4
559,True,1.5,structure_learning,338.725920916,unrot,0,0.970220088959,[],[],images/7.png,11,560,GL,True,2,False,3,36
560,True,1.5,structure_learning,340.231009007,unrot,0,0.638700962067,[],[],images/8.png,14,561,GL,True,2,False,4,3
561,True,1.5,structure_learning,341.736353874,unrot,0,0.856284856796,[],[],images/1.png,12,562,GL,True,2,False,5,10
562,False,1.5,structure_learning,343.241666079,rot,0,1.06741094589,[],[],images/7.png,11,563,GL,True,2,False,6,3
563,True,1.5,structure_learning,344.746803999,rot,90,0.903215885162,[],[],images/1.png,12,564,GL,False,2,False,7,2
564,True,1.5,structure_learning,346.252119064,unrot,0,0.626132011414,[],[],images/9.png,13,565,GL,True,2,False,8,6
565,True,1.5,structure_learning,347.757462978,unrot,0,0.612847089767,[],[],images/8.png,14,566,GL,True,2,False,9,5
566,True,1.5,structure_learning,349.262736082,rot,90,0.998742103577,[],[],images/7.png,11,567,GL,True,2,False,10,4
567,False,1.5,structure_learning,350.767819881,rot,0,0.84286904335,[],[],images/1.png,12,568,GL,True,2,False,11,4
568,False,1.5,structure_learning,352.273108959,unrot,90,0.462820053101,[],[],images/9.png,13,569,GL,False,2,False,12,4
569,True,1.5,structure_learning,353.778341055,unrot,0,0.0762701034546,[],[],images/1.png,12,570,GL,False,2,False,13,2
570,True,1.5,structure_learning,355.283631086,unrot,0,0.729249954224,[],[],images/8.png,14,571,GL,True,2,False,14,5
571,True,1.5,structure_learning,356.790119886,rot,90,1.36087417603,[],[],images/15.png,0,572,GL,True,0,True,1,15
572,True,1.5,structure_learning,358.295274973,unrot,0,0.78975892067,[],[],images/5.png,1,573,GL,True,0,False,2,38
573,True,1.5,structure_learning,359.800601959,unrot,0,0.808372974396,[],[],images/15.png,0,574,GL,True,0,False,3,2
574,True,1.5,structure_learning,361.305762053,rot,90,0.867616891861,[],[],images/8.png,14,575,GL,True,2,True,1,4
575,True,1.5,structure_learning,362.811022997,unrot,0,0.876804113388,[],[],images/15.png,0,576,GL,True,0,True,1,2
576,True,1.5,structure_learning,364.316236973,unrot,0,0.791653156281,[],[],images/10.png,3,577,GL,True,0,False,2,38
577,True,1.5,structure_learning,365.821702957,unrot,0,0.770122051239,[],[],images/5.png,1,578,GL,True,0,False,3,5
578,True,1.5,structure_learning,367.327013969,unrot,0,1.08240699768,[],[],images/14.png,2,579,GL,True,0,False,4,39
579,True,1.5,structure_learning,368.832247972,unrot,0,0.592265844345,[],[],images/10.png,3,580,GL,True,0,False,5,3
580,False,1.5,structure_learning,370.337790012,rot,0,0.683794975281,[],[],images/14.png,2,581,GL,True,0,False,6,2
581,True,1.5,structure_learning,371.842941046,unrot,0,0.532351016998,[],[],images/10.png,3,582,GL,False,0,False,7,2
582,True,1.5,structure_learning,373.349551916,rot,90,0.98964381218,[],[],images/15.png,0,583,GL,True,0,False,8,7
583,True,1.5,structure_learning,374.854780912,unrot,0,0.697160005569,[],[],images/8.png,14,584,GL,True,2,True,1,9
584,True,1.5,structure_learning,376.35995388,unrot,0,0.944530010223,[],[],images/1.png,12,585,GL,True,2,False,2,15
585,False,1.5,structure_learning,377.866916895,unrot,90,0.645140171051,[],[],images/9.png,13,586,GL,True,2,False,3,17
586,True,1.5,structure_learning,379.372282982,unrot,0,0.735077142715,[],[],images/1.png,12,587,GL,False,2,False,4,2
587,True,1.5,structure_learning,380.877512932,rot,90,0.857833862305,[],[],images/8.png,14,588,GL,True,2,False,5,4
588,True,1.5,structure_learning,382.382889032,unrot,0,0.875107049942,[],[],images/7.png,11,589,GL,True,2,False,6,22
589,False,1.5,structure_learning,383.887981892,unrot,90,1.02811002731,[],[],images/1.png,12,590,GL,True,2,False,7,3
590,False,1.5,structure_learning,385.393290997,rot,0,1.49258708954,[],[],images/7.png,11,591,GL,False,2,False,8,2
591,True,1.5,structure_learning,386.898554087,unrot,0,0.794243097305,[],[],images/8.png,14,592,GL,False,2,False,9,4
592,False,1.5,structure_learning,388.403903008,rot,0,0.821085929871,[],[],images/1.png,12,593,GL,True,2,False,10,3
593,True,1.5,structure_learning,389.91022706,unrot,0,1.03653001785,[],[],images/7.png,11,594,GL,False,2,False,11,3
594,True,1.5,structure_learning,391.415683985,unrot,0,0.562434196472,[],[],images/13.png,10,595,GL,True,2,False,12,41
595,True,1.5,structure_learning,392.921037912,unrot,0,0.461104869843,[],[],images/9.png,13,596,GL,True,2,False,13,10
596,True,1.5,structure_learning,394.426256895,rot,90,0.910182952881,[],[],images/13.png,10,597,GL,True,2,False,14,2
597,True,1.5,structure_learning,395.931516886,unrot,0,0.529595136642,[],[],images/9.png,13,598,GL,True,2,False,15,2
598,True,1.5,structure_learning,397.437022924,unrot,0,0.794637918472,[],[],images/1.png,12,599,GL,True,2,False,16,6
599,True,1.5,structure_learning,398.942315102,unrot,0,0.630203962326,[],[],images/7.png,11,600,GL,True,2,False,17,6
600,True,1.5,structure_learning,400.447597027,unrot,0,0.950733184814,[],[],images/1.png,12,601,GL,True,2,False,18,2
601,True,1.5,structure_learning,401.952940941,unrot,0,0.524465084076,[],[],images/9.png,13,602,GL,True,2,False,19,4
602,True,1.5,structure_learning,403.458282948,unrot,0,0.701929092407,[],[],images/13.png,10,603,GL,True,2,False,20,6
603,True,1.5,structure_learning,404.963690996,unrot,0,0.815470933914,[],[],images/2.png,9,604,GL,True,1,True,1,105
604,True,1.5,structure_learning,406.469203949,unrot,0,1.08687782288,[],[],images/6.png,8,605,GL,True,1,False,2,136
605,False,1.5,structure_learning,407.975900888,unrot,90,1.01790094376,[],[],images/3.png,5,606,GL,True,1,False,3,69
606,False,1.5,structure_learning,409.481321096,unrot,90,1.32972288132,[],[],images/11.png,4,607,GL,False,0,True,1,69
607,False,1.5,structure_learning,410.986802101,unrot,90,1.07635307312,[],[],images/3.png,5,608,GL,False,1,True,1,2
608,False,1.5,structure_learning,412.493426085,unrot,90,0.816507101059,[],[],images/11.png,4,609,GL,False,0,True,1,2
609,True,1.5,structure_learning,413.998884916,unrot,0,0.707800149918,[],[],images/5.png,1,610,GL,False,0,False,2,32
610,True,1.5,structure_learning,415.504072905,unrot,0,0.718336105347,[],[],images/11.png,4,611,GL,True,0,False,3,2
611,False,1.5,structure_learning,417.00959897,unrot,90,0.839884996414,[],[],images/3.png,5,612,GL,True,1,True,1,4
612,True,1.5,structure_learning,418.515031099,rot,90,1.48729395866,[],[],images/12.png,7,613,GL,False,1,False,2,195
613,True,1.5,structure_learning,420.020303011,unrot,0,1.21787500381,[],[],images/2.png,9,614,GL,True,1,False,3,10
614,True,1.5,structure_learning,421.525747061,unrot,0,0.759474039078,[],[],images/4.png,6,615,GL,True,1,False,4,145
615,False,1.5,structure_learning,423.030911922,rot,0,0.842845916748,[],[],images/3.png,5,616,GL,True,1,False,5,4
616,True,1.5,structure_learning,424.536199093,unrot,0,0.621490955353,[],[],images/11.png,4,617,GL,False,0,True,1,6
617,False,1.5,structure_learning,426.041529894,rot,0,0.957585096359,[],[],images/3.png,5,618,GL,True,1,True,1,2
618,False,1.5,structure_learning,427.547797918,rot,0,1.10282278061,[],[],images/6.png,8,619,GL,False,1,False,2,14
619,True,1.5,structure_learning,429.053296089,unrot,0,0.912698984146,[],[],images/2.png,9,620,GL,False,1,False,3,6
620,True,1.5,structure_learning,430.558480978,unrot,0,0.613943099976,[],[],images/4.png,6,621,GL,True,1,False,4,6
621,False,1.5,structure_learning,432.063611984,rot,0,0.800405979156,[],[],images/3.png,5,622,GL,True,1,False,5,4
622,True,1.5,structure_learning,433.568983078,unrot,0,0.618452787399,[],[],images/4.png,6,623,GL,False,1,False,6,2
623,True,1.5,structure_learning,435.074132919,unrot,0,1.00185585022,[],[],images/3.png,5,624,GL,True,1,False,7,2
624,True,1.5,structure_learning,436.579428911,rot,90,1.10168194771,[],[],images/12.png,7,625,GL,True,1,False,8,12
625,True,1.5,structure_learning,438.084660053,unrot,0,1.02277779579,[],[],images/3.png,5,626,GL,True,1,False,9,2
626,False,1.5,structure_learning,439.590023041,rot,0,0.756127119064,[],[],images/12.png,7,627,GL,True,1,False,10,2
627,True,1.5,structure_learning,441.095423937,unrot,0,0.812902927399,[],[],images/2.png,9,628,GL,False,1,False,11,8
628,True,1.5,structure_learning,442.600754976,unrot,0,0.775540113449,[],[],images/12.png,7,629,GL,True,1,False,12,2
629,True,1.5,structure_learning,444.106067896,unrot,0,0.690726995468,[],[],images/4.png,6,630,GL,True,1,False,13,7
630,True,1.5,structure_learning,445.611424923,unrot,0,0.55019402504,[],[],images/12.png,7,631,GL,True,1,False,14,2
631,True,1.5,structure_learning,447.116640091,unrot,0,0.783081054688,[],[],images/2.png,9,632,GL,True,1,False,15,4
632,True,1.5,structure_learning,448.621949911,unrot,0,0.555130004883,[],[],images/13.png,10,633,GL,True,2,True,1,30
633,True,1.5,structure_learning,450.12708497,unrot,0,0.875469923019,[],[],images/7.png,11,634,GL,True,2,False,2,34
634,True,1.5,structure_learning,451.632487059,unrot,0,0.590864896774,[],[],images/13.png,10,635,GL,True,2,False,3,2
635,True,1.5,structure_learning,453.138529062,unrot,0,0.831813097,[],[],images/1.png,12,636,GL,True,2,False,4,35
636,True,1.5,structure_learning,454.643743038,unrot,0,0.611242055893,[],[],images/8.png,14,637,GL,True,2,False,5,45
637,True,1.5,structure_learning,456.149389982,unrot,0,0.502611160278,[],[],images/9.png,13,638,GL,True,2,False,6,36
638,True,1.5,structure_learning,457.654524088,unrot,0,0.711766004562,[],[],images/1.png,12,639,GL,True,2,False,7,3
639,True,1.5,structure_learning,459.159842968,unrot,0,0.51503610611,[],[],images/9.png,13,640,GL,True,2,False,8,2
640,True,1.5,structure_learning,460.665206909,rot,90,0.677717924118,[],[],images/8.png,14,641,GL,True,2,False,9,4
641,True,1.5,structure_learning,462.170480013,unrot,0,0.869482040405,[],[],images/15.png,0,642,GL,True,0,True,1,59
642,True,1.5,structure_learning,463.67553997,rot,90,0.913053035736,[],[],images/5.png,1,643,GL,True,0,False,2,33
643,False,1.5,structure_learning,465.180888891,rot,0,1.07478690147,[],[],images/15.png,0,644,GL,True,0,False,3,2
644,True,1.5,structure_learning,466.685852051,unrot,0,0.694219112396,[],[],images/5.png,1,645,GL,False,0,False,4,2
645,True,1.5,structure_learning,468.190953016,unrot,0,0.784312963486,[],[],images/14.png,2,646,GL,True,0,False,5,65
646,True,1.5,structure_learning,469.695906878,unrot,0,0.858203887939,[],[],images/5.png,1,647,GL,True,0,False,6,2
647,True,1.5,structure_learning,471.200996876,unrot,0,0.557343006134,[],[],images/10.png,3,648,GL,True,0,False,7,66
648,True,1.5,structure_learning,472.70750308,rot,90,0.879098176956,[],[],images/5.png,1,649,GL,True,0,False,8,2
649,True,1.5,structure_learning,474.212819099,unrot,0,0.546329021454,[],[],images/10.png,3,650,GL,True,0,False,9,2
650,True,1.5,structure_learning,475.717856884,unrot,0,0.748028993607,[],[],images/5.png,1,651,GL,True,0,False,10,2
651,True,1.5,structure_learning,477.222915888,unrot,0,0.662842988968,[],[],images/11.png,4,652,GL,True,0,False,11,35
652,True,1.5,structure_learning,478.728317976,unrot,0,0.570096969604,[],[],images/10.png,3,653,GL,True,0,False,12,3
653,True,1.5,structure_learning,480.233666897,unrot,0,0.714067935944,[],[],images/14.png,2,654,GL,True,0,False,13,8
654,True,1.5,structure_learning,481.740232944,unrot,0,0.843296051025,[],[],images/11.png,4,655,GL,True,0,False,14,3
655,True,1.5,structure_learning,483.245883942,unrot,0,0.996789932251,[],[],images/5.png,1,656,GL,True,0,False,15,5
656,True,1.5,structure_learning,484.750927925,rot,90,0.920898914337,[],[],images/11.png,4,657,GL,True,0,False,16,2
657,True,1.5,structure_learning,486.256213903,unrot,0,0.620064020157,[],[],images/10.png,3,658,GL,True,0,False,17,5
658,True,1.5,structure_learning,487.761610985,unrot,0,0.702028036118,[],[],images/14.png,2,659,GL,True,0,False,18,5
659,False,1.5,structure_learning,489.266721964,unrot,90,0.50572013855,[],[],images/10.png,3,660,GL,True,0,False,19,2
660,True,1.5,structure_learning,490.771966934,unrot,0,0.857522964478,[],[],images/11.png,4,661,GL,False,0,False,20,4
661,True,1.5,structure_learning,492.277354002,unrot,0,0.756263017654,[],[],images/5.png,1,662,GL,True,0,False,21,6
662,True,1.5,structure_learning,493.782492876,unrot,0,0.711420059204,[],[],images/15.png,0,663,GL,True,0,False,22,19
663,True,1.5,structure_learning,495.287476063,unrot,0,0.745606899261,[],[],images/8.png,14,664,GL,True,2,True,1,23
664,False,1.5,structure_learning,496.792676926,unrot,90,0.740341901779,[],[],images/7.png,11,665,GL,True,2,False,2,31
665,True,1.5,structure_learning,498.297821999,unrot,0,0.520407915115,[],[],images/13.png,10,666,GL,False,2,False,3,31
666,True,1.5,structure_learning,499.802867889,unrot,0,1.15097498894,[],[],images/1.png,12,667,GL,True,2,False,4,28
667,True,1.5,structure_learning,6.91413879395e-05,unrot,0,0.722299098969,[],[],images/9.png,13,668,GL,True,2,False,5,28
668,True,1.5,structure_learning,1.50901007652,unrot,0,0.509371042252,[],[],images/13.png,10,669,GL,True,2,False,6,3
669,True,1.5,structure_learning,3.01575112343,unrot,0,0.462799072266,[],[],images/9.png,13,670,GL,True,2,False,7,2
670,True,1.5,structure_learning,4.5217461586,unrot,0,1.09355998039,[],[],images/7.png,11,671,GL,True,2,False,8,6
671,True,1.5,structure_learning,6.02696609497,rot,90,0.834954023361,[],[],images/13.png,10,672,GL,True,2,False,9,3
672,False,1.5,structure_learning,7.53236103058,unrot,90,0.828541994095,[],[],images/1.png,12,673,GL,True,2,False,10,6
673,True,1.5,structure_learning,9.0374250412,unrot,0,0.624709844589,[],[],images/9.png,13,674,GL,False,2,False,11,4
674,True,1.5,structure_learning,10.5428760052,rot,90,0.716302871704,[],[],images/13.png,10,675,GL,True,2,False,12,3
675,True,1.5,structure_learning,12.0479500294,unrot,0,0.543035984039,[],[],images/9.png,13,676,GL,True,2,False,13,2
676,True,1.5,structure_learning,13.553301096,rot,90,0.721888065338,[],[],images/13.png,10,677,GL,True,2,False,14,2
677,False,1.5,structure_learning,15.0585811138,rot,0,0.827968120575,[],[],images/7.png,11,678,GL,True,2,False,15,7
678,True,1.5,structure_learning,16.5636680126,unrot,0,0.789473056793,[],[],images/13.png,10,679,GL,False,2,False,16,2
679,True,1.5,structure_learning,18.0687539577,unrot,0,0.966875076294,[],[],images/1.png,12,680,GL,True,2,False,17,7
680,True,1.5,structure_learning,19.5740420818,unrot,0,0.524411916733,[],[],images/9.png,13,681,GL,True,2,False,18,5
681,True,1.5,structure_learning,21.0794069767,rot,90,0.845764875412,[],[],images/13.png,10,682,GL,True,2,False,19,3
682,False,1.5,structure_learning,22.5851900578,rot,0,1.07838082314,[],[],images/1.png,12,683,GL,True,2,False,20,3
683,True,1.5,structure_learning,24.0904750824,unrot,0,0.531311988831,[],[],images/13.png,10,684,GL,False,2,False,21,2
684,True,1.5,structure_learning,25.5958161354,unrot,0,0.541832923889,[],[],images/9.png,13,685,GL,True,2,False,22,4
685,False,1.5,structure_learning,27.1013081074,rot,0,1.00651979446,[],[],images/7.png,11,686,GL,True,2,False,23,8
686,False,1.5,structure_learning,28.606580019,unrot,90,0.562988996506,[],[],images/13.png,10,687,GL,False,2,False,24,3
687,True,1.5,structure_learning,30.111536026,unrot,0,0.94682097435,[],[],images/7.png,11,688,GL,False,2,False,25,2
688,True,1.5,structure_learning,31.6167769432,unrot,0,0.734761953354,[],[],images/8.png,14,689,GL,True,2,False,26,25
689,True,1.5,structure_learning,33.1221539974,unrot,0,1.04596400261,[],[],images/7.png,11,690,GL,True,2,False,27,2
690,True,1.5,structure_learning,34.6286170483,unrot,0,0.754748821259,[],[],images/8.png,14,691,GL,True,2,False,28,2
691,True,1.5,structure_learning,36.13412714,unrot,0,0.470496892929,[],[],images/9.png,13,692,GL,True,2,False,29,7
692,True,1.5,structure_learning,37.6402900219,unrot,0,0.846625089645,[],[],images/1.png,12,693,GL,True,2,False,30,10
693,True,1.5,structure_learning,39.1455631256,unrot,0,0.6744120121,[],[],images/8.png,14,694,GL,True,2,False,31,3
694,True,1.5,structure_learning,40.6507999897,unrot,0,0.701528787613,[],[],images/1.png,12,695,GL,True,2,False,32,2
695,True,1.5,structure_learning,42.1562840939,unrot,0,0.680297136307,[],[],images/13.png,10,696,GL,True,2,False,33,9
696,True,1.5,structure_learning,43.661342144,unrot,0,0.992680072784,[],[],images/7.png,11,697,GL,True,2,False,34,7
697,True,1.5,structure_learning,45.1666641235,unrot,0,0.765131950378,[],[],images/1.png,12,698,GL,True,2,False,35,3
698,True,1.5,structure_learning,46.6718389988,unrot,0,0.617170095444,[],[],images/13.png,10,699,GL,True,2,False,36,3
699,True,1.5,structure_learning,48.177200079,unrot,0,0.691248893738,[],[],images/9.png,13,700,GL,True,2,False,37,8
700,True,1.5,structure_learning,49.6826720238,unrot,0,0.662045955658,[],[],images/8.png,14,701,GL,True,2,False,38,7
701,True,1.5,structure_learning,51.1881620884,rot,90,0.825398921967,[],[],images/7.png,11,702,GL,True,2,False,39,5
702,True,1.5,structure_learning,52.6933550835,unrot,0,0.604206085205,[],[],images/13.png,10,703,GL,True,2,False,40,4
703,True,1.5,structure_learning,54.1987280846,unrot,0,0.932702064514,[],[],images/1.png,12,704,GL,True,2,False,41,6
704,False,1.5,structure_learning,55.7039351463,unrot,90,0.522479057312,[],[],images/9.png,13,705,GL,True,2,False,42,5
705,True,1.5,structure_learning,57.2093350887,unrot,0,0.92218208313,[],[],images/1.png,12,706,GL,False,2,False,43,2
706,True,1.5,structure_learning,58.7146279812,unrot,0,0.84502696991,[],[],images/7.png,11,707,GL,True,2,False,44,5
707,True,1.5,structure_learning,60.2200419903,unrot,0,0.847432851791,[],[],images/1.png,12,708,GL,True,2,False,45,2
708,True,1.5,structure_learning,61.7252650261,unrot,0,0.532039165497,[],[],images/9.png,13,709,GL,True,2,False,46,4
709,True,1.5,structure_learning,63.2307379246,unrot,0,0.574105024338,[],[],images/1.png,12,710,GL,True,2,False,47,2
710,True,1.5,structure_learning,64.7361719608,unrot,0,0.425446987152,[],[],images/9.png,13,711,GL,True,2,False,48,2
711,True,1.5,structure_learning,66.2415540218,rot,90,0.794661045074,[],[],images/8.png,14,712,GL,True,2,False,49,11
712,True,1.5,structure_learning,67.7470769882,rot,90,0.805447816849,[],[],images/15.png,0,713,GL,True,0,True,1,50
713,True,1.5,structure_learning,69.2522521019,unrot,0,0.743085861206,[],[],images/14.png,2,714,GL,True,0,False,2,55
714,True,1.5,structure_learning,70.7572979927,unrot,0,0.571399927139,[],[],images/10.png,3,715,GL,True,0,False,3,55
715,True,1.5,structure_learning,72.2623901367,unrot,0,0.58167719841,[],[],images/11.png,4,716,GL,True,0,False,4,55
716,True,1.5,structure_learning,73.7676279545,unrot,0,0.791087865829,[],[],images/14.png,2,717,GL,True,0,False,5,3
717,True,1.5,structure_learning,75.272616148,rot,90,0.882227897644,[],[],images/5.png,1,718,GL,True,0,False,6,56
718,True,1.5,structure_learning,76.7780690193,unrot,0,0.724370002747,[],[],images/11.png,4,719,GL,True,0,False,7,3
719,True,1.5,structure_learning,78.2832701206,unrot,0,0.72688293457,[],[],images/14.png,2,720,GL,True,0,False,8,3
720,True,1.5,structure_learning,79.78820014,unrot,0,1.26905894279,[],[],images/5.png,1,721,GL,True,0,False,9,3
721,True,1.5,structure_learning,81.2941660881,rot,90,0.732667922974,[],[],images/15.png,0,722,GL,True,0,False,10,9
722,True,1.5,structure_learning,82.7993099689,unrot,0,1.08313703537,[],[],images/5.png,1,723,GL,True,0,False,11,2
723,True,1.5,structure_learning,84.3045780659,unrot,0,0.863142967224,[],[],images/14.png,2,724,GL,True,0,False,12,4
724,True,1.5,structure_learning,85.8098421097,unrot,0,0.706496953964,[],[],images/5.png,1,725,GL,True,0,False,13,2
725,True,1.5,structure_learning,87.3153750896,unrot,0,0.573318958282,[],[],images/10.png,3,726,GL,True,0,False,14,11
726,True,1.5,structure_learning,88.8208911419,unrot,0,0.615700960159,[],[],images/14.png,2,727,GL,True,0,False,15,3
727,True,1.5,structure_learning,90.3260159492,unrot,0,0.625859975815,[],[],images/11.png,4,728,GL,True,0,False,16,9
728,True,1.5,structure_learning,91.831469059,unrot,0,0.818409919739,[],[],images/3.png,5,729,GL,True,1,True,1,103
729,True,1.5,structure_learning,93.3368029594,unrot,0,1.13960599899,[],[],images/12.png,7,730,GL,True,1,False,2,99
730,True,1.5,structure_learning,94.84197402,unrot,0,1.07822799683,[],[],images/3.png,5,731,GL,True,1,False,3,2
731,True,1.5,structure_learning,96.3473539352,rot,90,0.891523838043,[],[],images/6.png,8,732,GL,True,1,False,4,113
732,True,1.5,structure_learning,97.8527860641,rot,90,1.25169086456,[],[],images/4.png,6,733,GL,True,1,False,5,103
733,True,1.5,structure_learning,99.3579621315,unrot,0,0.886569023132,[],[],images/3.png,5,734,GL,True,1,False,6,3
734,False,1.5,structure_learning,100.864115953,unrot,90,0.848406076431,[],[],images/6.png,8,735,GL,True,1,False,7,3
735,True,1.5,structure_learning,102.370849133,unrot,0,0.795273065567,[],[],images/3.png,5,736,GL,False,1,False,8,2
736,False,1.5,structure_learning,103.876413107,unrot,90,0.829671859741,[],[],images/6.png,8,737,GL,True,1,False,9,2
737,True,1.5,structure_learning,105.381977081,unrot,0,0.632494926453,[],[],images/4.png,6,738,GL,False,1,False,10,5
738,True,1.5,structure_learning,106.888494968,unrot,0,0.889294862747,[],[],images/6.png,8,739,GL,True,1,False,11,2
739,True,1.5,structure_learning,108.393657923,unrot,0,0.740510940552,[],[],images/3.png,5,740,GL,True,1,False,12,4
740,False,1.5,structure_learning,109.899349928,rot,0,0.68873000145,[],[],images/6.png,8,741,GL,True,1,False,13,2
741,False,1.5,structure_learning,111.40458703,unrot,90,0.896468877792,[],[],images/2.png,9,742,GL,False,1,False,14,110
742,True,1.5,structure_learning,112.909875154,unrot,0,1.1521589756,[],[],images/12.png,7,743,GL,False,1,False,15,13
743,True,1.5,structure_learning,114.416592121,unrot,0,1.17813515663,[],[],images/6.png,8,744,GL,True,1,False,16,3
744,True,1.5,structure_learning,115.921913147,unrot,0,0.695935964584,[],[],images/12.png,7,745,GL,True,1,False,17,2
745,False,1.5,structure_learning,117.427078962,rot,0,0.731703996658,[],[],images/6.png,8,746,GL,True,1,False,18,2
746,True,1.5,structure_learning,118.932523966,unrot,0,0.677198886871,[],[],images/2.png,9,747,GL,False,1,False,19,5
747,True,1.5,structure_learning,120.437793016,unrot,0,0.751306056976,[],[],images/6.png,8,748,GL,True,1,False,20,2
748,True,1.5,structure_learning,121.943146944,rot,90,0.961740970612,[],[],images/4.png,6,749,GL,True,1,False,21,11
749,True,1.5,structure_learning,123.448483944,rot,90,1.13105916977,[],[],images/2.png,9,750,GL,True,1,False,22,3
750,True,1.5,structure_learning,124.953714132,unrot,0,0.988933086395,[],[],images/6.png,8,751,GL,True,1,False,23,3
751,False,1.5,structure_learning,126.458922148,unrot,90,0.943633079529,[],[],images/3.png,5,752,GL,True,1,False,24,12
752,True,1.5,structure_learning,127.964216948,unrot,0,0.842944860458,[],[],images/12.png,7,753,GL,False,1,False,25,8
753,True,1.5,structure_learning,129.469434977,unrot,0,0.924708127975,[],[],images/6.png,8,754,GL,True,1,False,26,3
754,True,1.5,structure_learning,130.974688053,unrot,0,0.768469810486,[],[],images/2.png,9,755,GL,True,1,False,27,5
755,True,1.5,structure_learning,132.480025053,unrot,0,0.715601921082,[],[],images/6.png,8,756,GL,True,1,False,28,2
756,True,1.5,structure_learning,133.985362053,unrot,0,0.644119977951,[],[],images/4.png,6,757,GL,True,1,False,29,8
757,False,1.5,structure_learning,135.492901087,rot,0,0.727655887604,[],[],images/2.png,9,758,GL,True,1,False,30,3
758,False,1.5,structure_learning,136.998234034,unrot,90,0.999143123627,[],[],images/12.png,7,759,GL,False,1,False,31,6
759,True,1.5,structure_learning,138.506225109,unrot,0,1.06212997437,[],[],images/3.png,5,760,GL,False,1,False,32,8
760,True,1.5,structure_learning,140.011759996,unrot,0,0.666762113571,[],[],images/6.png,8,761,GL,True,1,False,33,5
761,True,1.5,structure_learning,141.517316103,unrot,0,0.582281112671,[],[],images/4.png,6,762,GL,True,1,False,34,5
762,True,1.5,structure_learning,143.022552967,unrot,0,0.584793806076,[],[],images/2.png,9,763,GL,True,1,False,35,5
763,True,1.5,structure_learning,144.527780056,unrot,0,0.635174036026,[],[],images/4.png,6,764,GL,True,1,False,36,2
764,True,1.5,structure_learning,146.033097029,unrot,0,0.69362616539,[],[],images/6.png,8,765,GL,True,1,False,37,4
765,True,1.5,structure_learning,147.538299084,unrot,0,0.727951049805,[],[],images/12.png,7,766,GL,True,1,False,38,7
766,False,1.5,structure_learning,149.043628931,unrot,90,0.627473115921,[],[],images/2.png,9,767,GL,True,1,False,39,4
767,True,1.5,structure_learning,150.54876399,unrot,0,0.645916938782,[],[],images/6.png,8,768,GL,False,1,False,40,3
768,True,1.5,structure_learning,152.054243088,unrot,0,1.11683797836,[],[],images/2.png,9,769,GL,True,1,False,41,2
769,True,1.5,structure_learning,153.559608936,unrot,0,1.00803995132,[],[],images/6.png,8,770,GL,True,1,False,42,2
770,True,1.5,structure_learning,155.065118074,unrot,0,0.605157136917,[],[],images/4.png,6,771,GL,True,1,False,43,7
771,False,1.5,structure_learning,156.570255995,rot,0,0.664749860764,[],[],images/3.png,5,772,GL,True,1,False,44,12
772,True,1.5,structure_learning,158.075797081,unrot,0,0.816857099533,[],[],images/12.png,7,773,GL,False,1,False,45,7
773,True,1.5,structure_learning,159.581089973,unrot,0,0.779332876205,[],[],images/3.png,5,774,GL,True,1,False,46,2
774,False,1.5,structure_learning,161.086442947,rot,0,0.886875152588,[],[],images/11.png,4,775,GL,True,0,True,1,47
775,True,1.5,structure_learning,162.591717005,unrot,0,0.728636026382,[],[],images/14.png,2,776,GL,False,0,False,2,49
776,True,1.5,structure_learning,164.097136974,unrot,0,0.746711969376,[],[],images/15.png,0,777,GL,True,0,False,3,55
777,True,1.5,structure_learning,165.602304935,unrot,0,0.590081930161,[],[],images/10.png,3,778,GL,True,0,False,4,52
778,True,1.5,structure_learning,167.107610941,unrot,0,0.639666080475,[],[],images/11.png,4,779,GL,True,0,False,5,4
779,False,1.5,structure_learning,168.613008976,unrot,90,0.610566139221,[],[],images/14.png,2,780,GL,True,0,False,6,4
780,False,1.5,structure_learning,170.118119001,unrot,90,0.771848917007,[],[],images/5.png,1,781,GL,False,0,False,7,56
781,True,1.5,structure_learning,171.623337984,unrot,0,0.615878105164,[],[],images/10.png,3,782,GL,False,0,False,8,4
782,True,1.5,structure_learning,173.128628969,rot,90,1.00110602379,[],[],images/5.png,1,783,GL,True,0,False,9,2
783,True,1.5,structure_learning,174.633899927,unrot,0,0.906846046448,[],[],images/11.png,4,784,GL,True,0,False,10,5
784,False,1.5,structure_learning,176.139326096,unrot,90,0.543847084045,[],[],images/10.png,3,785,GL,True,0,False,11,3
785,True,1.5,structure_learning,177.644555092,rot,90,0.873675823212,[],[],images/5.png,1,786,GL,False,0,False,12,3
786,True,1.5,structure_learning,179.149711132,rot,90,0.733340978622,[],[],images/15.png,0,787,GL,True,0,False,13,10
787,False,1.5,structure_learning,180.65477705,unrot,90,0.662868022919,[],[],images/10.png,3,788,GL,True,0,False,14,3
788,True,1.5,structure_learning,182.160053015,unrot,0,0.776569128036,[],[],images/15.png,0,789,GL,False,0,False,15,2
789,False,1.5,structure_learning,183.665014982,unrot,90,0.849376916885,[],[],images/10.png,3,790,GL,True,0,False,16,2
790,True,1.5,structure_learning,185.17147994,unrot,0,1.45568299294,[],[],images/14.png,2,791,GL,False,0,False,17,11
791,False,1.5,structure_learning,186.676638126,rot,0,1.00580310822,[],[],images/5.png,1,792,GL,True,0,False,18,6
792,True,1.5,structure_learning,188.183048964,unrot,0,0.744959831238,[],[],images/14.png,2,793,GL,False,0,False,19,2
793,True,1.5,structure_learning,189.688197136,unrot,0,1.03319096565,[],[],images/11.png,4,794,GL,True,0,False,20,10
794,False,1.5,structure_learning,191.193735123,unrot,90,0.843337059021,[],[],images/10.png,3,795,GL,True,0,False,21,5
795,False,1.5,structure_learning,192.700500011,unrot,90,0.782034873962,[],[],images/5.png,1,796,GL,False,0,False,22,4
796,False,1.5,structure_learning,194.205955029,rot,0,1.10421586037,[],[],images/10.png,3,797,GL,False,0,False,23,2
797,True,1.5,structure_learning,195.711106062,unrot,0,0.954725027084,[],[],images/15.png,0,798,GL,False,0,False,24,9
798,False,1.5,structure_learning,197.216130018,-1,0,-1.0,[],[],images/14.png,2,799,GL,True,0,False,25,6
799,False,1.5,structure_learning,198.721890926,rot,0,0.0572891235352,[],[],images/15.png,0,800,GL,False,0,False,26,2
800,True,1.5,structure_learning,200.227117062,unrot,0,0.106630086899,[],[],images/10.png,3,801,GL,False,0,False,27,4
801,True,1.5,structure_learning,201.732277155,unrot,0,0.077269077301,[],[],images/5.png,1,802,GL,True,0,False,28,6
802,True,1.5,structure_learning,203.237630129,unrot,0,0.54071187973,[],[],images/10.png,3,803,GL,True,0,False,29,2
803,False,1.5,structure_learning,204.742954969,rot,0,0.926282167435,[],[],images/11.png,4,804,GL,True,0,False,30,10
804,True,1.5,structure_learning,206.248528004,unrot,0,1.13382983208,[],[],images/3.png,5,805,GL,False,1,True,1,31
805,False,1.5,structure_learning,207.753937006,rot,0,1.01854515076,[],[],images/6.png,8,806,GL,True,1,False,2,36
806,True,1.5,structure_learning,209.25931716,unrot,0,0.710135936737,[],[],images/2.png,9,807,GL,False,1,False,3,38
807,True,1.5,structure_learning,210.764507055,unrot,0,0.696792840958,[],[],images/13.png,10,808,GL,True,2,True,1,105
808,True,1.5,structure_learning,212.269722939,unrot,0,0.699609041214,[],[],images/1.png,12,809,GL,True,2,False,2,99
809,True,1.5,structure_learning,213.774744034,unrot,0,0.773721933365,[],[],images/8.png,14,810,GL,True,2,False,3,98
810,True,1.5,structure_learning,215.279960155,unrot,0,0.648797035217,[],[],images/15.png,0,811,GL,True,0,True,1,11
811,True,1.5,structure_learning,216.78528595,unrot,0,0.611168861389,[],[],images/8.png,14,812,GL,True,2,True,1,2
812,True,1.5,structure_learning,218.290774107,unrot,0,0.700726032257,[],[],images/1.png,12,813,GL,True,2,False,2,4
813,True,1.5,structure_learning,219.796149969,unrot,0,0.599895954132,[],[],images/8.png,14,814,GL,True,2,False,3,2
814,True,1.5,structure_learning,221.301542044,unrot,0,0.777413129807,[],[],images/15.png,0,815,GL,True,0,True,1,4
815,False,1.5,structure_learning,222.806939125,rot,0,0.859308958054,[],[],images/14.png,2,816,GL,True,0,False,2,17
816,True,1.5,structure_learning,224.31379509,rot,90,0.933492183685,[],[],images/15.png,0,817,GL,False,0,False,3,2
817,True,1.5,structure_learning,225.81904912,rot,90,0.745132923126,[],[],images/8.png,14,818,GL,True,2,True,1,4
818,False,1.5,structure_learning,227.324308157,rot,0,0.93830704689,[],[],images/7.png,11,819,GL,True,2,False,2,112
819,True,1.5,structure_learning,228.829726934,unrot,0,0.804304838181,[],[],images/1.png,12,820,GL,False,2,False,3,7
820,False,1.5,structure_learning,230.335020065,rot,0,0.991131067276,[],[],images/7.png,11,821,GL,True,2,False,4,2
821,False,1.5,structure_learning,231.840291977,unrot,90,0.586806058884,[],[],images/9.png,13,822,GL,False,2,False,5,111
822,True,1.5,structure_learning,233.345606089,unrot,0,0.724687099457,[],[],images/13.png,10,823,GL,False,2,False,6,15
823,True,1.5,structure_learning,234.850857973,unrot,0,0.616211891174,[],[],images/9.png,13,824,GL,True,2,False,7,2
824,True,1.5,structure_learning,236.356194973,unrot,0,0.626878023148,[],[],images/8.png,14,825,GL,True,2,False,8,7
825,False,1.5,structure_learning,237.861528158,unrot,90,0.573905944824,[],[],images/9.png,13,826,GL,True,2,False,9,2
826,True,1.5,structure_learning,239.366894007,unrot,0,0.791363954544,[],[],images/7.png,11,827,GL,False,2,False,10,6
827,True,1.5,structure_learning,240.872151136,unrot,0,0.619161128998,[],[],images/13.png,10,828,GL,True,2,False,11,5
828,True,1.5,structure_learning,242.377428055,unrot,0,0.836054086685,[],[],images/1.png,12,829,GL,True,2,False,12,9
829,False,1.5,structure_learning,243.883237123,rot,0,0.776129007339,[],[],images/7.png,11,830,GL,True,2,False,13,3
830,True,1.5,structure_learning,245.388698101,unrot,0,0.46622300148,[],[],images/1.png,12,831,GL,False,2,False,14,2
831,True,1.5,structure_learning,246.895223141,unrot,0,0.413405895233,[],[],images/9.png,13,832,GL,True,2,False,15,6
832,True,1.5,structure_learning,248.400706053,rot,90,0.767136096954,[],[],images/13.png,10,833,GL,True,2,False,16,5
833,False,1.5,structure_learning,249.905920029,unrot,90,0.48978304863,[],[],images/9.png,13,834,GL,True,2,False,17,2
834,True,1.5,structure_learning,251.41140604,unrot,0,0.698943138123,[],[],images/1.png,12,835,GL,False,2,False,18,4
835,True,1.5,structure_learning,252.91672802,unrot,0,0.582046031952,[],[],images/8.png,14,836,GL,True,2,False,19,11
836,True,1.5,structure_learning,254.422229052,unrot,0,0.632358074188,[],[],images/1.png,12,837,GL,True,2,False,20,2
837,True,1.5,structure_learning,255.927658081,unrot,0,0.539638996124,[],[],images/8.png,14,838,GL,True,2,False,21,2
838,True,1.5,structure_learning,257.432919025,unrot,0,0.486389875412,[],[],images/1.png,12,839,GL,True,2,False,22,2
839,True,1.5,structure_learning,258.938318014,unrot,0,0.457333087921,[],[],images/8.png,14,840,GL,True,2,False,23,2
840,False,1.5,structure_learning,260.443490028,unrot,90,0.491744995117,[],[],images/1.png,12,841,GL,True,2,False,24,2
841,True,1.5,structure_learning,261.948755026,unrot,0,0.60541510582,[],[],images/13.png,10,842,GL,False,2,False,25,9
842,True,1.5,structure_learning,263.454051971,unrot,0,0.72784113884,[],[],images/7.png,11,843,GL,True,2,False,26,13
843,True,1.5,structure_learning,264.959206104,unrot,0,0.515987157822,[],[],images/9.png,13,844,GL,True,2,False,27,10
844,True,1.5,structure_learning,266.464432001,unrot,0,0.598423957825,[],[],images/13.png,10,845,GL,True,2,False,28,3
845,False,1.5,structure_learning,267.969675064,rot,0,0.992058038712,[],[],images/9.png,13,846,GL,True,2,False,29,2
846,True,1.5,structure_learning,269.474971056,unrot,0,0.548008918762,[],[],images/8.png,14,847,GL,False,2,False,30,7
847,True,1.5,structure_learning,270.980416059,unrot,0,0.987159967422,[],[],images/7.png,11,848,GL,True,2,False,31,5
848,True,1.5,structure_learning,272.48576808,unrot,0,0.695633172989,[],[],images/9.png,13,849,GL,True,2,False,32,3
849,True,1.5,structure_learning,273.991115093,rot,90,0.827282905579,[],[],images/13.png,10,850,GL,True,2,False,33,5
850,True,1.5,structure_learning,275.496238947,rot,90,0.710150957108,[],[],images/9.png,13,851,GL,True,2,False,34,2
851,True,1.5,structure_learning,277.001826048,unrot,0,0.671817064285,[],[],images/13.png,10,852,GL,True,2,False,35,2
852,True,1.5,structure_learning,278.507215977,unrot,0,0.865333080292,[],[],images/9.png,13,853,GL,True,2,False,36,2
853,True,1.5,structure_learning,280.01266408,unrot,0,0.676775932312,[],[],images/8.png,14,854,GL,True,2,False,37,7
854,True,1.5,structure_learning,281.518644094,unrot,0,0.846635103226,[],[],images/15.png,0,855,GL,True,0,True,1,38
855,False,1.5,structure_learning,283.023896933,unrot,90,0.857215166092,[],[],images/14.png,2,856,GL,True,0,False,2,40
856,True,1.5,structure_learning,284.529103994,rot,90,1.12061500549,[],[],images/5.png,1,857,GL,False,0,False,3,55
857,True,1.5,structure_learning,286.03441,unrot,0,1.07434201241,[],[],images/14.png,2,858,GL,True,0,False,4,2
858,False,1.5,structure_learning,287.539446115,rot,0,1.08622384071,[],[],images/11.png,4,859,GL,True,0,False,5,55
859,True,1.5,structure_learning,289.044906139,unrot,0,0.833364963531,[],[],images/3.png,5,860,GL,False,1,True,1,55
