,correct,duration,exp_stage,onset,response,rotation,rt,secondary_responses,secondary_rts,stim_file,stim_index,trialnum,subjid,correct_shift,community,community_cross,steps_within_community,steps_since_seen
0,False,1.5,structure_learning,2.01706290245,rot,0,0.456838130951,[],[],images/2.png,0,1,YH,,0,,1,0
1,False,1.5,structure_learning,3.52546596527,rot,0,0.681363105774,[],[],images/15.png,1,2,YH,False,0,False,2,0
2,True,1.5,structure_learning,5.03136587143,unrot,0,1.35784292221,[],[],images/2.png,0,3,YH,False,0,False,3,2
3,True,1.5,structure_learning,6.53673601151,unrot,0,1.32062411308,[],[],images/15.png,1,4,YH,True,0,False,4,2
4,False,1.5,structure_learning,8.04190182686,-1,0,-1.0,[],[],images/5.png,2,5,YH,True,0,False,5,0
5,True,1.5,structure_learning,9.54732489586,unrot,0,0.114308834076,['left'],[1.012030839920044],images/10.png,4,6,YH,False,0,False,6,0
6,False,1.5,structure_learning,11.0579338074,rot,0,0.434671878815,[],[],images/13.png,3,7,YH,True,0,False,7,0
7,True,1.5,structure_learning,12.5633380413,unrot,0,0.801487922668,[],[],images/2.png,0,8,YH,False,0,False,8,5
8,False,1.5,structure_learning,14.0687198639,rot,0,0.662569046021,[],[],images/7.png,14,9,YH,True,2,True,1,0
9,True,1.5,structure_learning,15.5741488934,unrot,0,0.91788816452,[],[],images/6.png,12,10,YH,False,2,False,2,0
10,False,1.5,structure_learning,17.0796339512,rot,0,0.89034819603,[],[],images/4.png,10,11,YH,True,2,False,3,0
11,False,1.5,structure_learning,18.5850498676,rot,0,0.670144796371,[],[],images/3.png,13,12,YH,False,2,False,4,0
12,True,1.5,structure_learning,20.0904090405,rot,90,0.886886119843,[],[],images/6.png,12,13,YH,False,2,False,5,3
13,False,1.5,structure_learning,21.5962679386,rot,0,0.500200986862,[],[],images/4.png,10,14,YH,True,2,False,6,3
14,False,1.5,structure_learning,23.1014750004,rot,0,1.00360894203,[],[],images/3.png,13,15,YH,False,2,False,7,3
15,True,1.5,structure_learning,24.6068840027,unrot,0,0.997035980225,[],[],images/11.png,11,16,YH,False,2,False,8,0
16,False,1.5,structure_learning,26.1122019291,-1,0,-1.0,[],[],images/3.png,13,17,YH,True,2,False,9,2
17,False,1.5,structure_learning,27.6175999641,rot,0,0.656388044357,[],[],images/4.png,10,18,YH,False,2,False,10,4
18,False,1.5,structure_learning,29.1229269505,-1,0,-1.0,[],[],images/6.png,12,19,YH,False,2,False,11,6
19,True,1.5,structure_learning,30.6281938553,rot,90,0.210722923279,[],[],images/4.png,10,20,YH,False,2,False,12,2
20,False,1.5,structure_learning,32.1334748268,rot,0,0.840898990631,[],[],images/11.png,11,21,YH,True,2,False,13,5
21,False,1.5,structure_learning,33.6391699314,-1,90,-1.0,[],[],images/3.png,13,22,YH,False,2,False,14,5
22,False,1.5,structure_learning,35.1445069313,-1,0,-1.0,[],[],images/11.png,11,23,YH,False,2,False,15,2
23,False,1.5,structure_learning,36.6498880386,-1,90,-1.0,[],[],images/6.png,12,24,YH,False,2,False,16,5
24,False,1.5,structure_learning,38.1551778316,rot,0,0.277055978775,[],[],images/3.png,13,25,YH,False,2,False,17,3
25,False,1.5,structure_learning,39.6606709957,-1,90,-1.0,[],[],images/11.png,11,26,YH,False,2,False,18,3
26,True,1.5,structure_learning,41.1661248207,unrot,0,0.44211101532,"['left', 'left']","[0.8231301307678223, 1.2026000022888184]",images/7.png,14,27,YH,False,2,False,19,18
27,True,1.5,structure_learning,42.6715569496,rot,90,0.275099992752,['left'],[1.0520830154418945],images/11.png,11,28,YH,True,2,False,20,2
28,True,1.5,structure_learning,44.1772079468,rot,90,0.267892837524,['left'],[1.0289268493652344],images/7.png,14,29,YH,True,2,False,21,2
29,True,1.5,structure_learning,45.6826488972,rot,90,0.379547119141,[],[],images/6.png,12,30,YH,True,2,False,22,6
30,False,1.5,structure_learning,47.1881968975,rot,0,0.0395050048828,['right'],[1.4427940845489502],images/7.png,14,31,YH,True,2,False,23,2
31,True,1.5,structure_learning,48.6947109699,unrot,0,0.459711074829,['right'],[0.9185869693756104],images/11.png,11,32,YH,False,2,False,24,4
32,True,1.5,structure_learning,50.2004430294,unrot,0,0.17275094986,['right'],[0.6398460865020752],images/4.png,10,33,YH,True,2,False,25,13
33,True,1.5,structure_learning,51.7072868347,unrot,0,0.237652778625,['right'],[1.189659833908081],images/12.png,9,34,YH,True,1,True,1,0
34,True,1.5,structure_learning,53.2125039101,rot,90,0.486624002457,[],[],images/9.png,8,35,YH,True,1,False,2,0
35,True,1.5,structure_learning,54.7178919315,unrot,0,0.10679101944,"['right', 'left']","[0.6927709579467773, 1.3996379375457764]",images/1.png,5,36,YH,True,1,False,3,0
36,False,1.5,structure_learning,56.223156929,rot,0,0.409049987793,['left'],[1.138469934463501],images/14.png,7,37,YH,True,1,False,4,0
37,False,1.5,structure_learning,57.7284469604,rot,0,0.130577087402,"['left', 'left']","[0.7485928535461426, 1.120270013809204]",images/8.png,6,38,YH,False,1,False,5,0
38,False,1.5,structure_learning,59.2348968983,rot,0,0.606824159622,[],[],images/1.png,5,39,YH,False,1,False,6,3
39,True,1.5,structure_learning,60.7401628494,unrot,0,0.38297700882,[],[],images/10.png,4,40,YH,False,0,True,1,34
40,False,1.5,structure_learning,62.2484250069,rot,0,0.0600311756134,[],[],images/15.png,1,41,YH,True,0,False,2,37
41,False,1.5,structure_learning,63.755259037,rot,0,0.290081977844,[],[],images/10.png,4,42,YH,False,0,False,3,2
42,False,1.5,structure_learning,65.2638478279,rot,0,0.277215003967,[],[],images/5.png,2,43,YH,False,0,False,4,38
43,True,1.5,structure_learning,66.7692170143,unrot,0,0.704877853394,[],[],images/10.png,4,44,YH,False,0,False,5,2
44,True,1.5,structure_learning,68.2776639462,unrot,0,0.326061010361,['left'],[0.7229130268096924],images/5.png,2,45,YH,True,0,False,6,2
45,False,1.5,structure_learning,69.783107996,rot,0,0.519509077072,[],[],images/13.png,3,46,YH,True,0,False,7,39
46,True,1.5,structure_learning,71.2883000374,unrot,0,0.108491897583,"['right', 'left']","[0.6152780055999756, 1.0997509956359863]",images/15.png,1,47,YH,False,0,False,8,6
47,False,1.5,structure_learning,72.7934989929,rot,0,0.435115098953,[],[],images/13.png,3,48,YH,True,0,False,9,2
48,False,1.5,structure_learning,74.2987089157,rot,0,0.0371890068054,[],[],images/10.png,4,49,YH,False,0,False,10,5
49,True,1.5,structure_learning,75.8072810173,unrot,0,0.468226909637,['right'],[1.3882949352264404],images/15.png,1,50,YH,False,0,False,11,3
50,False,1.5,structure_learning,77.312525034,rot,0,0.189947843552,['right'],[1.2047688961029053],images/5.png,2,51,YH,True,0,False,12,6
51,False,1.5,structure_learning,78.8203120232,unrot,90,0.571439981461,['left'],[1.1989221572875977],images/2.png,0,52,YH,False,0,False,13,44
52,False,1.5,structure_learning,80.3255889416,rot,0,0.478734016418,['left'],[1.1133079528808594],images/7.png,14,53,YH,False,2,True,1,22
53,False,1.5,structure_learning,81.830904007,unrot,90,0.518256902695,['left'],[1.4398488998413086],images/6.png,12,54,YH,False,2,False,2,24
54,True,1.5,structure_learning,83.3363428116,rot,90,0.979942083359,[],[],images/11.png,11,55,YH,False,2,False,3,23
55,False,1.5,structure_learning,84.8433940411,rot,0,0.148036003113,['left'],[0.8852148056030273],images/7.png,14,56,YH,True,2,False,4,3
56,False,1.5,structure_learning,86.3486299515,rot,0,0.395636081696,[],[],images/6.png,12,57,YH,False,2,False,5,3
57,False,1.5,structure_learning,87.8538789749,rot,0,0.216184854507,[],[],images/11.png,11,58,YH,False,2,False,6,3
58,True,1.5,structure_learning,89.3590488434,rot,90,0.243580102921,[],[],images/7.png,14,59,YH,False,2,False,7,3
59,False,1.5,structure_learning,90.86419487,rot,0,0.294032096863,[],[],images/2.png,0,60,YH,True,0,True,1,8
60,False,1.5,structure_learning,92.3695368767,rot,0,0.448601007462,[],[],images/13.png,3,61,YH,False,0,False,2,13
61,False,1.5,structure_learning,93.8745949268,rot,0,0.372213125229,[],[],images/2.png,0,62,YH,False,0,False,3,2
62,False,1.5,structure_learning,95.379914999,rot,0,0.438906908035,[],[],images/13.png,3,63,YH,False,0,False,4,2
63,False,1.5,structure_learning,96.8851389885,unrot,90,0.400894165039,[],[],images/2.png,0,64,YH,False,0,False,5,2
64,False,1.5,structure_learning,98.3903758526,rot,0,0.238279819489,[],[],images/7.png,14,65,YH,False,2,True,1,6
65,False,1.5,structure_learning,99.8955738544,rot,0,0.472182035446,[],[],images/6.png,12,66,YH,False,2,False,2,9
66,False,1.5,structure_learning,101.400749922,rot,0,1.09506797791,[],[],images/7.png,14,67,YH,False,2,False,3,2
67,False,1.5,structure_learning,102.905848026,rot,0,1.04226994514,[],[],images/2.png,0,68,YH,False,0,True,1,4
68,False,1.5,structure_learning,104.410987854,rot,0,1.06935310364,[],[],images/15.png,1,69,YH,False,0,False,2,19
69,False,1.5,structure_learning,105.916141033,rot,0,1.11990499496,[],[],images/2.png,0,70,YH,False,0,False,3,2
70,False,1.5,structure_learning,107.42147994,rot,0,1.31358790398,[],[],images/5.png,2,71,YH,False,0,False,4,20
71,False,1.5,structure_learning,108.926736832,-1,0,-1.0,[],[],images/10.png,4,72,YH,False,0,False,5,23
72,False,1.5,structure_learning,110.435547829,rot,0,0.0621387958527,['left'],[1.1174898147583008],images/5.png,2,73,YH,False,0,False,6,2
73,False,1.5,structure_learning,111.941005945,-1,0,-1.0,[],[],images/10.png,4,74,YH,False,0,False,7,2
74,False,1.5,structure_learning,113.45023489,rot,0,0.961853027344,[],[],images/1.png,5,75,YH,False,1,True,1,36
75,False,1.5,structure_learning,114.955890894,rot,0,1.044080019,[],[],images/14.png,7,76,YH,False,1,False,2,39
76,False,1.5,structure_learning,116.461179018,rot,0,1.4043648243,[],[],images/1.png,5,77,YH,False,1,False,3,2
77,False,1.5,structure_learning,117.966622829,rot,0,0.539730072021,[],[],images/9.png,8,78,YH,False,1,False,4,43
78,False,1.5,structure_learning,119.473012924,rot,0,0.169471025467,['right'],[0.8815732002258301],images/1.png,5,79,YH,False,1,False,5,2
79,False,1.5,structure_learning,120.978166819,unrot,90,0.380699872971,['left'],[1.2148420810699463],images/10.png,4,80,YH,False,0,True,1,6
80,False,1.5,structure_learning,122.486629009,rot,0,0.613487005234,['left'],[1.406559944152832],images/5.png,2,81,YH,False,0,False,2,8
81,False,1.5,structure_learning,123.991964817,rot,0,0.487279176712,['left'],[1.144881010055542],images/15.png,1,82,YH,False,0,False,3,13
82,False,1.5,structure_learning,125.497220039,rot,0,0.273719072342,"['left', 'left']","[0.6136910915374756, 0.9135949611663818]",images/5.png,2,83,YH,False,0,False,4,2
83,False,1.5,structure_learning,127.002404928,rot,0,0.495147943497,[],[],images/13.png,3,84,YH,False,0,False,5,21
84,False,1.5,structure_learning,128.507644892,-1,0,-1.0,[],[],images/5.png,2,85,YH,False,0,False,6,2
85,False,1.5,structure_learning,130.01283288,rot,0,0.770019054413,[],[],images/10.png,4,86,YH,False,0,False,7,6
86,True,1.5,structure_learning,131.52156496,unrot,0,0.564790010452,['right'],[1.0006840229034424],images/1.png,5,87,YH,False,1,True,1,8
87,False,1.5,structure_learning,133.026888847,-1,90,-1.0,[],[],images/8.png,6,88,YH,True,1,False,2,50
88,False,1.5,structure_learning,134.532058954,-1,0,-1.0,[],[],images/12.png,9,89,YH,False,1,False,3,55
89,True,1.5,structure_learning,136.037107944,rot,90,0.122870206833,['left'],[1.479844093322754],images/14.png,7,90,YH,False,1,False,4,14
90,True,1.5,structure_learning,137.54212904,unrot,0,0.551619052887,['left'],[1.3778629302978516],images/1.png,5,91,YH,True,1,False,5,4
91,False,1.5,structure_learning,139.047308922,rot,0,0.924652099609,[],[],images/10.png,4,92,YH,True,0,True,1,6
92,False,1.5,structure_learning,140.55565691,rot,0,0.999148845673,[],[],images/1.png,5,93,YH,False,1,True,1,2
93,False,1.5,structure_learning,142.060879946,-1,0,-1.0,[],[],images/14.png,7,94,YH,False,1,False,2,4
94,True,1.5,structure_learning,143.566239834,rot,90,0.178260803223,[],[],images/9.png,8,95,YH,False,1,False,3,17
95,False,1.5,structure_learning,145.071666956,rot,0,0.0225210189819,['right'],[0.3869740962982178],images/12.png,9,96,YH,True,1,False,4,7
96,False,1.5,structure_learning,146.576895952,rot,0,0.854398965836,[],[],images/9.png,8,97,YH,False,1,False,5,2
97,False,1.5,structure_learning,148.082019806,rot,0,0.856533050537,[],[],images/14.png,7,98,YH,False,1,False,6,4
98,True,1.5,structure_learning,149.588325024,rot,90,1.137830019,[],[],images/8.png,6,99,YH,False,1,False,7,11
99,False,1.5,structure_learning,151.093443871,rot,0,0.425451040268,[],[],images/1.png,5,100,YH,True,1,False,8,7
100,True,1.5,structure_learning,152.598805904,rot,90,0.464465856552,['right'],[1.1370790004730225],images/10.png,4,101,YH,False,0,True,1,9
101,False,1.5,structure_learning,154.107414961,rot,0,0.585232019424,[],[],images/15.png,1,102,YH,True,0,False,2,20
102,True,1.5,structure_learning,155.612740993,unrot,0,0.44841003418,[],[],images/10.png,4,103,YH,False,0,False,3,2
103,False,1.5,structure_learning,157.121425867,rot,0,0.730067968369,['right'],[0.7304670810699463],images/1.png,5,104,YH,True,1,True,1,4
104,False,1.5,structure_learning,158.626961946,rot,0,0.108414173126,['left'],[0.8059430122375488],images/10.png,4,105,YH,False,0,True,1,2
105,False,1.5,structure_learning,160.135602951,rot,0,0.0682940483093,['left'],[0.8691561222076416],images/15.png,1,106,YH,False,0,False,2,4
106,True,1.5,structure_learning,161.642256021,rot,90,0.410653114319,"['right', 'left', 'right']","[0.7412009239196777, 1.2018630504608154, 1.4289510250091553]",images/2.png,0,107,YH,False,0,False,3,37
107,False,1.5,structure_learning,163.147864819,rot,0,0.320649862289,['right'],[0.5318520069122314],images/7.png,14,108,YH,True,2,True,1,41
108,False,1.5,structure_learning,164.653165817,-1,0,-1.0,[],[],images/11.png,11,109,YH,False,2,False,2,51
109,False,1.5,structure_learning,166.158387899,rot,0,1.3837120533,[],[],images/6.png,12,110,YH,False,2,False,3,44
110,False,1.5,structure_learning,167.663825035,rot,0,1.04515814781,['left'],[1.2339041233062744],images/7.png,14,111,YH,False,2,False,4,3
111,False,1.5,structure_learning,169.168928862,-1,90,-1.0,[],[],images/11.png,11,112,YH,False,2,False,5,3
112,False,1.5,structure_learning,170.674314022,rot,0,0.208756923676,[],[],images/6.png,12,113,YH,False,2,False,6,3
113,True,1.5,structure_learning,172.179587841,unrot,0,0.281476020813,['right'],[1.3207759857177734],images/11.png,11,114,YH,False,2,False,7,2
114,False,1.5,structure_learning,173.685151815,rot,0,0.641249895096,[],[],images/7.png,14,115,YH,True,2,False,8,4
115,False,1.5,structure_learning,175.19095397,rot,0,0.747443199158,[],[],images/2.png,0,116,YH,False,0,True,1,9
116,True,1.5,structure_learning,176.696435928,unrot,0,0.605873823166,[],[],images/13.png,3,117,YH,False,0,False,2,33
117,False,1.5,structure_learning,178.201747894,rot,0,0.0984039306641,['left'],[1.2411739826202393],images/10.png,4,118,YH,True,0,False,3,13
118,False,1.5,structure_learning,179.710368872,rot,0,0.719352006912,[],[],images/5.png,2,119,YH,False,0,False,4,34
119,False,1.5,structure_learning,181.215718031,rot,0,0.627252101898,[],[],images/2.png,0,120,YH,False,0,False,5,4
120,True,1.5,structure_learning,182.721068859,rot,90,0.36025595665,['left'],[0.9862539768218994],images/7.png,14,121,YH,False,2,True,1,6
121,False,1.5,structure_learning,184.226243973,rot,0,0.233762025833,[],[],images/11.png,11,122,YH,True,2,False,2,8
122,False,1.5,structure_learning,185.73169589,rot,0,0.293192148209,[],[],images/6.png,12,123,YH,False,2,False,3,10
123,False,1.5,structure_learning,187.237031937,rot,0,0.026025056839,['left'],[1.3036839962005615],images/11.png,11,124,YH,False,2,False,4,2
124,False,1.5,structure_learning,188.742385864,rot,0,0.520159959793,['left'],[1.2414939403533936],images/4.png,10,125,YH,False,2,False,5,92
125,False,1.5,structure_learning,190.247681856,rot,0,0.839534044266,[],[],images/3.png,13,126,YH,False,2,False,6,101
126,False,1.5,structure_learning,191.752971888,rot,0,0.293996810913,['left'],[1.047194004058838],images/6.png,12,127,YH,False,2,False,7,4
127,False,1.5,structure_learning,193.258128881,rot,0,0.112105846405,"['left', 'left']","[0.5317540168762207, 1.2293438911437988]",images/7.png,14,128,YH,False,2,False,8,7
128,True,1.5,structure_learning,194.763419867,rot,90,0.119737863541,"['left', 'left']","[0.5710580348968506, 1.0938279628753662]",images/11.png,11,129,YH,False,2,False,9,5
129,False,1.5,structure_learning,196.268689871,rot,0,0.254227876663,"['left', 'left', 'left']","[0.6104450225830078, 1.0059809684753418, 1.3376500606536865]",images/6.png,12,130,YH,True,2,False,10,3
130,False,1.5,structure_learning,197.774016857,rot,0,0.194488048553,"['left', 'left', 'left']","[0.5343170166015625, 0.8662440776824951, 1.2220120429992676]",images/4.png,10,131,YH,False,2,False,11,6
131,False,1.5,structure_learning,199.280771971,rot,0,0.0164251327515,"['left', 'left', 'left', 'left']","[0.2927970886230469, 0.5929269790649414, 0.9168779850006104, 1.1294541358947754]",images/6.png,12,132,YH,False,2,False,12,2
132,False,1.5,structure_learning,200.786402941,rot,0,0.759459972382,"['left', 'left']","[1.0037000179290771, 1.279939889907837]",images/4.png,10,133,YH,False,2,False,13,2
133,False,1.5,structure_learning,202.291500807,rot,0,0.0668330192566,"['left', 'left', 'left', 'right']","[0.30307888984680176, 0.5557670593261719, 0.8240020275115967, 1.4721081256866455]",images/3.png,13,134,YH,False,2,False,14,8
134,True,1.5,structure_learning,203.796934843,unrot,0,0.4812271595,"['right', 'right']","[0.916309118270874, 1.287809133529663]",images/4.png,10,135,YH,False,2,False,15,2
135,False,1.5,structure_learning,205.302489996,rot,0,0.330371856689,['right'],[1.0899300575256348],images/6.png,12,136,YH,True,2,False,16,4
136,False,1.5,structure_learning,206.807992935,rot,0,0.354974985123,['right'],[1.0032689571380615],images/3.png,13,137,YH,False,2,False,17,3
137,False,1.5,structure_learning,208.313467026,rot,0,0.100821018219,"['right', 'left']","[0.5744800567626953, 1.0189549922943115]",images/7.png,14,138,YH,False,2,False,18,10
138,True,1.5,structure_learning,209.819597006,unrot,0,0.114227056503,"['left', 'right']","[0.5350310802459717, 1.0880870819091797]",images/11.png,11,139,YH,False,2,False,19,10
139,False,1.5,structure_learning,211.325066805,rot,0,0.25573682785,"['right', 'left']","[0.7054159641265869, 1.1422297954559326]",images/7.png,14,140,YH,True,2,False,20,2
140,True,1.5,structure_learning,212.832227945,unrot,0,0.158311843872,['left'],[0.8253278732299805],images/11.png,11,141,YH,False,2,False,21,2
141,False,1.5,structure_learning,214.337543011,unrot,90,0.00844693183899,"['left', 'right']","[0.5883200168609619, 1.0696039199829102]",images/6.png,12,142,YH,True,2,False,22,6
142,False,1.5,structure_learning,215.842792034,rot,0,0.151490211487,"['right', 'left']","[0.6173009872436523, 1.1414411067962646]",images/11.png,11,143,YH,False,2,False,23,2
143,True,1.5,structure_learning,217.348546982,unrot,0,0.157464027405,"['left', 'right']","[0.6499271392822266, 1.1392920017242432]",images/7.png,14,144,YH,False,2,False,24,4
144,False,1.5,structure_learning,218.853632927,rot,0,0.086678981781,"['right', 'left', 'right']","[0.44089293479919434, 0.8932440280914307, 1.343074083328247]",images/2.png,0,145,YH,True,0,True,1,25
145,False,1.5,structure_learning,220.3587749,rot,0,0.298225164413,"['right', 'left']","[0.6842131614685059, 1.256066083908081]",images/7.png,14,146,YH,False,2,True,1,2
146,True,1.5,structure_learning,221.863984823,unrot,0,0.22438287735,[],[],images/11.png,11,147,YH,False,2,False,2,4
147,True,1.5,structure_learning,223.369251013,unrot,0,0.282755851746,"['left', 'left']","[0.814749002456665, 1.2103168964385986]",images/3.png,13,148,YH,True,2,False,3,11
148,True,1.5,structure_learning,224.874545813,rot,90,0.219764947891,"['left', 'left', 'left']","[0.7422440052032471, 1.0501530170440674, 1.3424248695373535]",images/4.png,10,149,YH,True,2,False,4,14
149,True,1.5,structure_learning,226.379936934,unrot,0,0.334353923798,"['left', 'right', 'left']","[0.619905948638916, 0.8947548866271973, 1.4503579139709473]",images/6.png,12,150,YH,True,2,False,5,8
150,True,1.5,structure_learning,227.885169983,unrot,0,0.385452032089,"['left', 'left']","[0.7429318428039551, 1.1622638702392578]",images/4.png,10,151,YH,True,2,False,6,2
151,True,1.5,structure_learning,229.391724825,unrot,0,0.0668861865997,"['left', 'right', 'right']","[0.4397881031036377, 0.8337001800537109, 1.1975021362304688]",images/3.png,13,152,YH,True,2,False,7,4
152,False,1.5,structure_learning,230.896975994,rot,0,0.0332579612732,"['right', 'left']","[0.3634030818939209, 0.8159799575805664]",images/11.png,11,153,YH,True,2,False,8,6
153,True,1.5,structure_learning,232.402262926,unrot,0,0.0466411113739,"['right', 'left', 'left', 'right']","[0.346405029296875, 0.7910871505737305, 1.0434131622314453, 1.4534831047058105]",images/6.png,12,154,YH,False,2,False,9,4
154,False,1.5,structure_learning,233.907480955,rot,0,0.34539604187,"['right', 'left', 'right']","[0.7234330177307129, 1.0964598655700684, 1.4825189113616943]",images/4.png,10,155,YH,True,2,False,10,4
155,False,1.5,structure_learning,235.412693977,rot,0,0.326448202133,"['right', 'left', 'right']","[0.6490850448608398, 1.0778861045837402, 1.495758056640625]",images/3.png,13,156,YH,False,2,False,11,4
156,True,1.5,structure_learning,236.918025017,rot,90,0.474764823914,"['left', 'left', 'left']","[0.8783018589019775, 1.170365810394287, 1.4939370155334473]",images/6.png,12,157,YH,False,2,False,12,3
157,False,1.5,structure_learning,238.423303843,rot,0,0.23308801651,"['left', 'left']","[0.5251967906951904, 0.8335468769073486]",images/3.png,13,158,YH,True,2,False,13,2
158,True,1.5,structure_learning,239.928617001,unrot,0,0.692130804062,[],[],images/7.png,14,159,YH,False,2,False,14,13
159,False,1.5,structure_learning,241.433979988,-1,0,-1.0,[],[],images/3.png,13,160,YH,True,2,False,15,2
160,False,1.5,structure_learning,242.939301014,-1,0,-1.0,[],[],images/6.png,12,161,YH,False,2,False,16,4
161,False,1.5,structure_learning,244.444759846,rot,0,1.0070309639,[],[],images/3.png,13,162,YH,False,2,False,17,2
162,False,1.5,structure_learning,245.950104952,rot,0,0.666257858276,[],[],images/11.png,11,163,YH,False,2,False,18,10
163,False,1.5,structure_learning,247.455550909,rot,0,0.917662143707,[],[],images/6.png,12,164,YH,False,2,False,19,3
164,False,1.5,structure_learning,248.961025,rot,0,0.00626397132874,"['right', 'right']","[1.0363271236419678, 1.4397671222686768]",images/11.png,11,165,YH,False,2,False,20,2
165,True,1.5,structure_learning,250.466619968,unrot,0,0.409264802933,['right'],[0.8524758815765381],images/6.png,12,166,YH,False,2,False,21,2
166,True,1.5,structure_learning,251.97207284,unrot,0,-0.00106000900269,"['left', 'left']","[0.3935410976409912, 1.05137300491333]",images/11.png,11,167,YH,True,2,False,22,2
167,False,1.5,structure_learning,253.47814393,rot,0,0.00508785247803,"['left', 'left', 'left']","[0.44838690757751465, 0.7566938400268555, 1.2315149307250977]",images/4.png,10,168,YH,True,2,False,23,13
168,True,1.5,structure_learning,254.983533859,unrot,0,0.271310091019,"['right', 'left']","[0.7542481422424316, 1.190960168838501]",images/12.png,9,169,YH,False,1,True,1,73
169,True,1.5,structure_learning,256.488737822,unrot,0,0.0637149810791,"['left', 'right', 'left']","[0.4766061305999756, 0.8069281578063965, 1.2361249923706055]",images/9.png,8,170,YH,True,1,False,2,73
170,True,1.5,structure_learning,257.994105816,unrot,0,0.148716211319,"['left', 'right', 'left']","[0.5295841693878174, 0.9157991409301758, 1.4161310195922852]",images/12.png,9,171,YH,True,1,False,3,2
171,True,1.5,structure_learning,259.499296904,unrot,0,0.273317098618,"['left', 'right']","[0.6861991882324219, 1.064418077468872]",images/8.png,6,172,YH,True,1,False,4,73
172,False,1.5,structure_learning,261.004295826,rot,0,0.0121841430664,"['right', 'left', 'right', 'left']","[0.3343961238861084, 0.7233860492706299, 1.069633960723877, 1.4745659828186035]",images/9.png,8,173,YH,True,1,False,5,3
173,True,1.5,structure_learning,262.509409904,unrot,0,0.347709178925,"['left', 'left']","[0.8876020908355713, 1.227410078048706]",images/14.png,7,174,YH,False,1,False,6,76
174,True,1.5,structure_learning,264.014532804,rot,90,0.18905210495,"['left', 'left', 'left']","[0.5209460258483887, 0.9879910945892334, 1.4468841552734375]",images/9.png,8,175,YH,True,1,False,7,2
175,False,1.5,structure_learning,265.519821882,rot,0,0.376959085464,"['left', 'left']","[0.81215500831604, 1.1838319301605225]",images/14.png,7,176,YH,True,1,False,8,2
176,True,1.5,structure_learning,267.024937868,rot,90,0.312232017517,"['left', 'left']","[0.7872300148010254, 1.174921989440918]",images/9.png,8,177,YH,False,1,False,9,2
177,True,1.5,structure_learning,268.53052187,rot,90,0.0889458656311,"['left', 'left', 'left']","[0.6196310520172119, 1.0626800060272217, 1.4978549480438232]",images/8.png,6,178,YH,True,1,False,10,6
178,False,1.5,structure_learning,270.035634041,rot,0,0.411741018295,"['left', 'left']","[0.8787798881530762, 1.4172630310058594]",images/14.png,7,179,YH,True,1,False,11,3
179,False,1.5,structure_learning,271.541038036,rot,0,0.323401212692,"['left', 'left']","[0.8779780864715576, 1.352593183517456]",images/1.png,5,180,YH,False,1,False,12,76
180,True,1.5,structure_learning,273.046185017,rot,90,0.298515081406,"['left', 'left']","[0.8211829662322998, 1.1689510345458984]",images/8.png,6,181,YH,False,1,False,13,3
181,True,1.5,structure_learning,274.551431894,rot,90,0.0748839378357,"['left', 'left']","[0.46218299865722656, 1.0088438987731934]",images/9.png,8,182,YH,True,1,False,14,5
182,False,1.5,structure_learning,276.056707859,rot,0,0.310909986496,['left'],[0.8811187744140625],images/8.png,6,183,YH,True,1,False,15,2
183,True,1.5,structure_learning,277.563272953,unrot,0,0.0637359619141,"['right', 'left', 'right']","[0.6262040138244629, 0.99941086769104, 1.2899229526519775]",images/9.png,8,184,YH,False,1,False,16,2
184,False,1.5,structure_learning,279.068322897,rot,0,0.197455883026,"['right', 'left']","[0.5677390098571777, 1.091620922088623]",images/1.png,5,185,YH,True,1,False,17,5
185,True,1.5,structure_learning,280.573604822,unrot,0,0.0518760681152,['right'],[0.6461200714111328],images/9.png,8,186,YH,False,1,False,18,2
186,False,1.5,structure_learning,282.078797817,rot,0,0.197290897369,"['right', 'left', 'right']","[0.6708488464355469, 1.083725929260254, 1.3901190757751465]",images/1.png,5,187,YH,True,1,False,19,2
187,False,1.5,structure_learning,283.584219933,rot,0,0.582857847214,['right'],[1.2789008617401123],images/8.png,6,188,YH,False,1,False,20,5
188,False,1.5,structure_learning,285.090605021,rot,0,0.359745025635,['right'],[0.9131810665130615],images/9.png,8,189,YH,False,1,False,21,3
189,False,1.5,structure_learning,286.597689867,rot,0,0.504309892654,['right'],[1.375770092010498],images/1.png,5,190,YH,False,1,False,22,3
190,False,1.5,structure_learning,288.102831841,rot,0,0.656937837601,['right'],[1.003680944442749],images/9.png,8,191,YH,False,1,False,23,2
191,False,1.5,structure_learning,289.608037949,rot,0,0.69047999382,[],[],images/12.png,9,192,YH,False,1,False,24,21
192,False,1.5,structure_learning,291.113046885,rot,0,0.534593105316,"['right', 'left']","[0.856997013092041, 1.1903321743011475]",images/14.png,7,193,YH,False,1,False,25,14
193,True,1.5,structure_learning,292.618510008,unrot,0,0.0551269054413,['left'],[0.9369750022888184],images/1.png,5,194,YH,False,1,False,26,4
194,True,1.5,structure_learning,294.124042988,unrot,0,0.318588018417,"['left', 'right']","[0.8666529655456543, 1.228754997253418]",images/9.png,8,195,YH,True,1,False,27,4
195,False,1.5,structure_learning,295.629518032,rot,0,0.176289081573,"['right', 'left', 'right', 'left']","[0.3953421115875244, 0.6493260860443115, 0.7354390621185303, 1.144869089126587]",images/1.png,5,196,YH,True,1,False,28,2
196,True,1.5,structure_learning,297.134702921,unrot,0,0.00885701179504,"['left', 'left']","[0.4515831470489502, 1.0058560371398926]",images/14.png,7,197,YH,False,1,False,29,4
197,False,1.5,structure_learning,298.64001298,rot,0,0.301620960236,"['left', 'left', 'left']","[0.6095318794250488, 0.9893608093261719, 1.2576348781585693]",images/12.png,9,198,YH,True,1,False,30,6
198,True,1.5,structure_learning,300.145308018,rot,90,0.257548093796,['left'],[0.7484540939331055],images/4.png,10,199,YH,False,2,True,1,31
199,False,1.5,structure_learning,301.652181864,rot,0,0.887016057968,['left'],[1.1553449630737305],images/12.png,9,200,YH,True,1,True,1,2
200,False,1.5,structure_learning,303.157424927,rot,0,0.522319078445,['left'],[0.7826189994812012],images/14.png,7,201,YH,False,1,False,2,4
201,False,1.5,structure_learning,304.662704945,rot,0,0.15762090683,"['left', 'left', 'left']","[0.37821197509765625, 1.2351229190826416, 1.4160218238830566]",images/9.png,8,202,YH,False,1,False,3,7
202,False,1.5,structure_learning,306.168187857,rot,0,0.377608060837,"['left', 'left', 'left']","[0.5503249168395996, 1.0253138542175293, 1.2219369411468506]",images/8.png,6,203,YH,False,1,False,4,15
203,False,1.5,structure_learning,307.6736269,rot,0,0.16801905632,"['left', 'left', 'left', 'left', 'left']","[0.3489079475402832, 0.7600870132446289, 0.9727721214294434, 1.1615560054779053, 1.3582220077514648]",images/9.png,8,204,YH,False,1,False,5,2
204,True,1.5,structure_learning,309.178802967,rot,90,0.0814502239227,"['left', 'left', 'left', 'left', 'left', 'left']","[0.30208516120910645, 0.4828360080718994, 0.7034480571746826, 0.9240331649780273, 1.1208021640777588, 1.2856600284576416]",images/12.png,9,205,YH,False,1,False,6,5
205,False,1.5,structure_learning,310.684120893,rot,0,0.0406138896942,[],[],images/14.png,7,206,YH,True,1,False,7,5
206,True,1.5,structure_learning,312.189479828,unrot,0,1.48104691505,[],[],images/8.png,6,207,YH,False,1,False,8,4
207,True,1.5,structure_learning,313.694788933,unrot,0,0.30730009079,"['right', 'right', 'right', 'right']","[0.5438570976257324, 0.7485330104827881, 0.9850339889526367, 1.2453911304473877]",images/1.png,5,208,YH,True,1,False,9,12
208,False,1.5,structure_learning,315.200099945,rot,0,1.07518815994,[],[],images/9.png,8,209,YH,True,1,False,10,5
209,True,1.5,structure_learning,316.705345869,unrot,0,0.0336768627167,"['left', 'right']","[0.5638039112091064, 1.0592877864837646]",images/8.png,6,210,YH,False,1,False,11,3
210,False,1.5,structure_learning,318.21040082,rot,0,0.275082826614,"['right', 'left']","[0.7705428600311279, 1.3090829849243164]",images/12.png,9,211,YH,True,1,False,12,6
211,True,1.5,structure_learning,319.71555686,unrot,0,0.321431159973,"['left', 'right']","[0.7951350212097168, 1.347588062286377]",images/8.png,6,212,YH,False,1,False,13,2
212,False,1.5,structure_learning,321.221896887,rot,0,0.412537097931,['right'],[0.9240219593048096],images/9.png,8,213,YH,True,1,False,14,4
213,True,1.5,structure_learning,322.727109909,unrot,0,0.256144046783,"['left', 'right', 'left']","[0.6295759677886963, 0.9519479274749756, 1.2535300254821777]",images/1.png,5,214,YH,False,1,False,15,6
214,False,1.5,structure_learning,324.233412981,unrot,90,-0.00108098983765,"['left', 'left', 'left', 'left']","[0.32439208030700684, 0.6245009899139404, 0.8690130710601807, 1.113434076309204]",images/14.png,7,215,YH,True,1,False,16,9
215,False,1.5,structure_learning,325.739148855,rot,0,0.217703104019,"['left', 'right', 'left', 'right']","[0.4940359592437744, 0.7926621437072754, 1.1498970985412598, 1.4168429374694824]",images/1.png,5,216,YH,False,1,False,17,2
216,False,1.5,structure_learning,327.244882822,rot,0,0.205261945724,"['right', 'left', 'right', 'left', 'left']","[0.3551490306854248, 0.5748980045318604, 0.7702789306640625, 0.9683980941772461, 1.2367501258850098]",images/8.png,6,217,YH,False,1,False,18,5
217,False,1.5,structure_learning,328.750172853,rot,0,0.103041172028,"['left', 'left', 'left', 'left', 'left']","[0.33159613609313965, 0.3931541442871094, 0.7173099517822266, 1.0571250915527344, 1.389111042022705]",images/1.png,5,218,YH,False,1,False,19,2
218,False,1.5,structure_learning,330.255532026,rot,0,0.223847866058,"['right', 'right', 'left', 'left', 'right']","[0.47443699836730957, 0.8146538734436035, 1.1001219749450684, 1.3922760486602783, 1.4687929153442383]",images/14.png,7,219,YH,False,1,False,20,4
219,True,1.5,structure_learning,331.76075387,rot,90,0.201043128967,"['right', 'left', 'right', 'left', 'right', 'left', 'right', 'left']","[0.27149510383605957, 0.48311710357666016, 0.543910026550293, 0.8052940368652344, 0.8421170711517334, 1.1431241035461426, 1.180021047592163, 1.4730849266052246]",images/8.png,6,220,YH,False,1,False,21,3
220,False,1.5,structure_learning,333.265906811,unrot,90,0.0206789970398,"['right', 'left', 'left', 'right']","[0.3517119884490967, 0.7171659469604492, 1.0251798629760742, 1.3556079864501953]",images/12.png,9,221,YH,True,1,False,22,10
221,False,1.5,structure_learning,334.771162987,rot,0,0.159866094589,"['right', 'left', 'right', 'right', 'left', 'left', 'right', 'left', 'right']","[0.27567315101623535, 0.394334077835083, 0.4727139472961426, 0.667259931564331, 0.6833810806274414, 0.8953649997711182, 1.003814935684204, 1.2093169689178467, 1.2463159561157227]",images/8.png,6,222,YH,False,1,False,23,2
222,False,1.5,structure_learning,336.276489019,rot,0,0.00231409072876,"['right', 'left', 'right', 'left', 'right', 'left', 'right', 'left', 'left', 'right']","[0.10223603248596191, 0.2925150394439697, 0.345289945602417, 0.5827281475067139, 0.7143440246582031, 0.8251030445098877, 0.9257111549377441, 1.0752699375152588, 1.3197851181030273, 1.4673171043395996]",images/1.png,5,223,YH,False,1,False,24,5
223,False,1.5,structure_learning,337.781647921,rot,0,0.0888268947601,"['left', 'right', 'left', 'right', 'left', 'right', 'left', 'right', 'left']","[0.35738086700439453, 0.42604589462280273, 0.6314840316772461, 0.7338829040527344, 0.8899030685424805, 1.0055818557739258, 1.1401820182800293, 1.2638969421386719, 1.382720947265625]",images/8.png,6,224,YH,False,1,False,25,2
224,False,1.5,structure_learning,339.286799908,rot,0,0.201158046722,"['right', 'left', 'right', 'left', 'right', 'left', 'left', 'right']","[0.28583598136901855, 0.48342299461364746, 0.6548089981079102, 0.773461103439331, 0.8733971118927002, 0.9689319133758545, 1.2203481197357178, 1.3680601119995117]",images/1.png,5,225,YH,False,1,False,26,2
225,False,1.5,structure_learning,340.792246819,rot,0,-0.00111484527588,"['right', 'left', 'right', 'left', 'right', 'left']","[0.0961611270904541, 0.2285289764404297, 0.3524281978607178, 0.49495816230773926, 0.595649003982544, 0.7929720878601074]",images/10.png,4,226,YH,False,0,True,1,108
226,False,1.5,structure_learning,342.300985813,-1,0,-1.0,[],[],images/15.png,1,227,YH,False,0,False,2,121
227,False,1.5,structure_learning,343.806711912,-1,0,-1.0,[],[],images/13.png,3,228,YH,False,0,False,3,111
228,True,1.5,structure_learning,345.313042879,unrot,0,0.239208936691,"['left', 'right']","[0.7315700054168701, 1.4992868900299072]",images/5.png,2,229,YH,False,0,False,4,110
229,False,1.5,structure_learning,346.81832099,rot,0,0.443459033966,[],[],images/10.png,4,230,YH,True,0,False,5,4
230,False,1.5,structure_learning,348.32673502,rot,0,0.709218025208,['right'],[1.3417620658874512],images/15.png,1,231,YH,False,0,False,6,4
231,True,1.5,structure_learning,349.831885815,unrot,0,0.10527586937,"['right', 'right', 'right', 'right']","[0.381572961807251, 0.6262130737304688, 1.0694119930267334, 1.3456718921661377]",images/5.png,2,232,YH,False,0,False,7,3
232,False,1.5,structure_learning,351.337036848,unrot,90,0.124701023102,"['right', 'right', 'right']","[0.6235501766204834, 0.9713051319122314, 1.2394120693206787]",images/2.png,0,233,YH,True,0,False,8,88
233,True,1.5,structure_learning,352.842217922,unrot,0,0.0261740684509,"['right', 'right', 'right', 'right']","[0.2864360809326172, 0.6662280559539795, 0.9901440143585205, 1.3220181465148926]",images/5.png,2,234,YH,False,0,False,9,2
234,False,1.5,structure_learning,354.347492933,rot,0,0.214020013809,"['right', 'left', 'right', 'left', 'right', 'left']","[0.5285329818725586, 0.7265820503234863, 0.8823239803314209, 1.0644941329956055, 1.2210631370544434, 1.4184789657592773]",images/15.png,1,235,YH,True,0,False,10,4
235,True,1.5,structure_learning,355.852455854,unrot,0,0.100591897964,"['left', 'right', 'left', 'right', 'right', 'left']","[0.30678296089172363, 0.38346385955810547, 0.660632848739624, 0.7612018585205078, 1.0843148231506348, 1.2347698211669922]",images/2.png,0,236,YH,False,0,False,11,3
236,False,1.5,structure_learning,357.357697964,-1,0,-1.0,[],[],images/13.png,3,237,YH,True,0,False,12,9
237,True,1.5,structure_learning,358.863813877,rot,90,1.36823296547,[],[],images/2.png,0,238,YH,False,0,False,13,2
238,False,1.5,structure_learning,360.37051487,-1,0,-1.0,[],[],images/13.png,3,239,YH,True,0,False,14,2
239,False,1.5,structure_learning,361.875797987,-1,0,-1.0,[],[],images/10.png,4,240,YH,False,0,False,15,10
240,False,1.5,structure_learning,363.384205818,-1,90,-1.0,[],[],images/5.png,2,241,YH,False,0,False,16,7
241,False,1.5,structure_learning,364.889425993,rot,0,0.229846954346,[],[],images/13.png,3,242,YH,False,0,False,17,3
242,False,1.5,structure_learning,366.395066023,rot,0,0.772228002548,[],[],images/15.png,1,243,YH,False,0,False,18,8
243,False,1.5,structure_learning,367.90140295,rot,0,0.024918794632,"['left', 'left', 'left', 'left', 'left', 'left']","[0.31703877449035645, 0.5535497665405273, 0.7741348743438721, 0.9787969589233398, 1.183218002319336, 1.3961279392242432]",images/10.png,4,244,YH,False,0,False,19,4
244,False,1.5,structure_learning,369.409798861,rot,0,0.102998018265,"['left', 'left', 'left', 'left', 'left', 'left']","[0.33168697357177734, 0.5441820621490479, 0.7487931251525879, 0.961406946182251, 1.16618013381958, 1.3708999156951904]",images/1.png,5,245,YH,False,1,True,1,20
245,False,1.5,structure_learning,370.915354967,rot,0,0.0698208808899,"['left', 'left', 'left', 'left', 'left', 'left', 'left']","[0.26652002334594727, 0.4791259765625, 0.668097972869873, 0.8647558689117432, 1.069415807723999, 1.2741138935089111, 1.4787390232086182]",images/14.png,7,246,YH,False,1,False,2,27
246,False,1.5,structure_learning,372.42105794,rot,0,0.177029848099,"['left', 'left', 'left', 'left', 'left', 'left']","[0.3816409111022949, 0.5945398807525635, 0.8072860240936279, 0.9878890514373779, 1.2322568893432617, 1.3970880508422852]",images/12.png,9,247,YH,False,1,False,3,26
247,False,1.5,structure_learning,373.927219868,rot,0,0.0806879997253,"['left', 'left', 'left', 'left', 'left', 'left']","[0.2854039669036865, 0.49009180068969727, 0.6867918968200684, 0.8994729518890381, 1.1119418144226074, 1.308769941329956]",images/9.png,8,248,YH,False,1,False,4,35
248,False,1.5,structure_learning,375.432475805,rot,0,0.0240788459778,"['left', 'left', 'left', 'left', 'left', 'left', 'left']","[0.22877979278564453, 0.44940996170043945, 0.6619319915771484, 0.8666138648986816, 1.055337905883789, 1.2600088119506836, 1.4567718505859375]",images/14.png,7,249,YH,False,1,False,5,3
249,True,1.5,structure_learning,376.937814951,rot,90,0.15623998642,"['left', 'left', 'left', 'right', 'right', 'right']","[0.35296082496643066, 0.5416347980499268, 0.7542359828948975, 0.87795090675354, 1.1065177917480469, 1.3191068172454834]",images/12.png,9,250,YH,False,1,False,6,3
250,True,1.5,structure_learning,378.443042994,unrot,0,0.0344181060791,"['right', 'right', 'right', 'right', 'right', 'right', 'right']","[0.23111510276794434, 0.435744047164917, 0.6005129814147949, 0.7892971038818359, 0.9544789791107178, 1.1829540729522705, 1.3877830505371094]",images/9.png,8,251,YH,True,1,False,7,3
251,True,1.5,structure_learning,379.948307991,unrot,0,0.0712399482727,"['right', 'right', 'right', 'left', 'left']","[0.2838590145111084, 0.4808070659637451, 0.8287451267242432, 1.2020339965820312, 1.3987150192260742]",images/1.png,5,252,YH,True,1,False,8,7
252,False,1.5,structure_learning,381.453586817,rot,0,0.0872890949249,"['left', 'left', 'left', 'right', 'right', 'left', 'right']","[0.291719913482666, 0.48871898651123047, 0.6934890747070312, 0.8410079479217529, 1.0933070182800293, 1.2996220588684082, 1.344512939453125]",images/10.png,4,253,YH,True,0,True,1,9
253,False,1.5,structure_learning,382.961779833,rot,0,0.0289509296417,"['right', 'left', 'right', 'left', 'right', 'left', 'right', 'left', 'right', 'left', 'right', 'left', 'right']","[0.11360907554626465, 0.27146387100219727, 0.34988903999328613, 0.4821760654449463, 0.5765399932861328, 0.7245850563049316, 0.79339599609375, 0.9431600570678711, 1.004148006439209, 1.1459379196166992, 1.2619309425354004, 1.4122600555419922, 1.4906420707702637]",images/13.png,3,254,YH,False,0,False,2,12
254,False,1.5,structure_learning,384.466969967,rot,0,0.149142026901,"['right', 'left', 'right', 'left', 'right', 'left', 'right', 'left', 'right', 'left', 'right', 'left']","[0.23397588729858398, 0.36789488792419434, 0.4701199531555176, 0.6500759124755859, 0.7044858932495117, 0.8289659023284912, 0.9446229934692383, 1.0873169898986816, 1.1713778972625732, 1.2821519374847412, 1.3824539184570312, 1.4929378032684326]",images/2.png,0,255,YH,False,0,False,3,17
255,True,1.5,structure_learning,385.972527027,unrot,0,0.10338306427,"['left', 'right', 'left', 'right', 'left', 'right', 'left', 'right', 'left', 'right', 'left', 'right']","[0.1910109519958496, 0.3538389205932617, 0.43251705169677734, 0.509174108505249, 0.6115550994873047, 0.705564022064209, 0.8142750263214111, 0.9150040149688721, 1.0327119827270508, 1.1508691310882568, 1.2675831317901611, 1.3776450157165527]",images/13.png,3,256,YH,False,0,False,4,2
256,False,1.5,structure_learning,387.477864981,rot,0,0.00528502464294,"['right', 'left', 'right', 'left', 'right', 'left', 'right', 'left', 'left', 'right', 'left']","[0.0892789363861084, 0.24718189239501953, 0.30957603454589844, 0.441910982131958, 0.5106098651885986, 0.6844279766082764, 0.7531280517578125, 0.9271340370178223, 1.1873090267181396, 1.2974069118499756, 1.4297208786010742]",images/15.png,1,257,YH,True,0,False,5,14
257,True,1.5,structure_learning,388.983256817,unrot,0,0.286953926086,"['right', 'right']","[0.6107950210571289, 0.966594934463501]",images/13.png,3,258,YH,False,0,False,6,2
258,True,1.5,structure_learning,390.488834858,unrot,0,0.230279922485,"['right', 'right', 'right', 'right', 'right', 'right']","[0.5383129119873047, 0.7430069446563721, 0.9316308498382568, 1.1125619411468506, 1.3012590408325195, 1.4741759300231934]",images/5.png,2,259,YH,True,0,False,7,18
259,True,1.5,structure_learning,391.993978024,unrot,0,0.154614925385,"['right', 'right', 'right']","[0.35927486419677734, 0.5798609256744385, 1.2695848941802979]",images/10.png,4,260,YH,True,0,False,8,7
260,True,1.5,structure_learning,393.502485991,unrot,0,0.0402719974518,"['right', 'right', 'right', 'right', 'right', 'right']","[0.31647706031799316, 0.5769100189208984, 0.7896361351013184, 0.9785060882568359, 1.1594040393829346, 1.364314079284668]",images/5.png,2,261,YH,True,0,False,9,2
261,True,1.5,structure_learning,395.007990837,unrot,0,0.222301959991,"['right', 'right', 'left', 'left', 'left', 'left']","[0.45085883140563965, 0.6555578708648682, 0.9174108505249023, 1.0984549522399902, 1.2872848510742188, 1.460141897201538]",images/13.png,3,262,YH,True,0,False,10,4
262,False,1.5,structure_learning,396.513664007,rot,0,0.174996137619,"['left', 'left', 'left', 'left', 'right', 'left', 'right']","[0.3638930320739746, 0.5527739524841309, 0.7574539184570312, 0.9543881416320801, 1.157447099685669, 1.3717820644378662, 1.4483520984649658]",images/5.png,2,263,YH,True,0,False,11,2
263,False,1.5,structure_learning,398.019321918,rot,0,0.124737977982,"['right', 'left', 'right', 'left', 'right', 'right', 'left', 'right', 'left', 'right', 'right', 'left']","[0.17745590209960938, 0.3353760242462158, 0.4138000011444092, 0.5621020793914795, 0.6069278717041016, 0.7950561046600342, 0.937579870223999, 1.05342698097229, 1.1322100162506104, 1.2322719097137451, 1.3973040580749512, 1.4610660076141357]",images/13.png,3,264,YH,False,0,False,12,2
264,True,1.5,structure_learning,399.52483201,unrot,0,0.107049942017,"['left', 'left', 'right', 'left', 'right', 'left']","[0.1787879467010498, 0.40662693977355957, 0.4435100555419922, 0.6490890979766846, 0.7576580047607422, 0.9314520359039307]",images/10.png,4,265,YH,False,0,False,13,5
265,True,1.5,structure_learning,401.033608913,rot,90,0.195257902145,['left'],[0.7976779937744141],images/13.png,3,266,YH,True,0,False,14,2
266,True,1.5,structure_learning,402.539021015,rot,90,0.0688819885254,"['left', 'left']","[0.6393890380859375, 1.3448278903961182]",images/5.png,2,267,YH,True,0,False,15,4
267,False,1.5,structure_learning,404.044757843,rot,0,0.282660007477,"['left', 'right', 'right']","[0.6779680252075195, 1.2149219512939453, 1.4912879467010498]",images/2.png,0,268,YH,True,0,False,16,13
268,False,1.5,structure_learning,405.550110817,rot,0,0.311183214188,"['left', 'right', 'right']","[0.5952370166778564, 0.9019331932067871, 1.1703550815582275]",images/5.png,2,269,YH,False,0,False,17,2
269,True,1.5,structure_learning,407.05574894,unrot,0,0.0521881580353,"['left', 'left', 'right', 'left']","[0.35384202003479004, 0.558718204498291, 0.8572170734405518, 1.2701120376586914]",images/2.png,0,270,YH,False,0,False,18,2
270,False,1.5,structure_learning,408.561470985,rot,0,0.35089302063,"['left', 'right', 'left']","[0.6828770637512207, 0.981295108795166, 1.3305399417877197]",images/13.png,3,271,YH,True,0,False,19,5
271,False,1.5,structure_learning,410.066768885,rot,0,0.268616914749,"['right', 'left', 'left']","[0.6069529056549072, 0.8370730876922607, 1.176896095275879]",images/5.png,2,272,YH,False,0,False,20,3
272,True,1.5,structure_learning,411.572024822,unrot,0,0.032546043396,"['left', 'right', 'left']","[0.43752503395080566, 0.7997729778289795, 1.1093339920043945]",images/2.png,0,273,YH,False,0,False,21,3
273,True,1.5,structure_learning,413.078529835,unrot,0,0.00582194328308,"['left', 'right', 'left', 'right', 'left', 'right']","[0.3395059108734131, 0.6615340709686279, 0.8918209075927734, 1.1108760833740234, 1.3011300563812256, 1.4406728744506836]",images/5.png,2,274,YH,True,0,False,22,2
274,False,1.5,structure_learning,414.583902836,rot,0,0.0686078071594,"['left', 'right', 'left', 'left']","[0.6630628108978271, 0.7000348567962646, 0.8260948657989502, 1.4362928867340088]",images/2.png,0,275,YH,True,0,False,23,2
275,True,1.5,structure_learning,416.090422869,unrot,0,0.00745511054993,"['left', 'right', 'right', 'left', 'left', 'right']","[0.37198901176452637, 0.44910717010498047, 0.7884769439697266, 0.8122589588165283, 1.1515941619873047, 1.2124571800231934]",images/15.png,1,276,YH,False,0,False,24,19
276,True,1.5,structure_learning,417.595647812,unrot,0,0.162986040115,"['left', 'right', 'right', 'left', 'right']","[0.5362739562988281, 0.5572049617767334, 0.9440140724182129, 1.3330659866333008, 1.3699629306793213]",images/5.png,2,277,YH,True,0,False,25,3
277,True,1.5,structure_learning,419.103456974,unrot,0,0.22446513176,"['right', 'left']","[0.6281261444091797, 1.375244140625]",images/10.png,4,278,YH,True,0,False,26,13
278,True,1.5,structure_learning,420.612031937,unrot,0,0.00203108787537,"['left', 'right', 'right', 'left', 'right', 'right', 'right']","[0.7143211364746094, 0.7147190570831299, 0.8937129974365234, 1.0125131607055664, 1.0894861221313477, 1.2854580879211426, 1.4821851253509521]",images/5.png,2,279,YH,True,0,False,27,2
279,False,1.5,structure_learning,422.117527962,rot,0,0.0796370506287,"['right', 'right', 'left', 'right', 'right', 'left', 'right']","[0.14777183532714844, 0.36855387687683105, 0.5013518333435059, 0.6028180122375488, 0.783789873123169, 1.323796033859253, 1.4323618412017822]",images/13.png,3,280,YH,True,0,False,28,9
280,True,1.5,structure_learning,423.622939825,rot,90,0.0369589328766,"['right', 'left', 'right', 'right', 'right', 'left']","[0.12162303924560547, 0.25632786750793457, 0.5622589588165283, 0.7827339172363281, 1.011504888534546, 1.0275559425354004]",images/2.png,0,281,YH,False,0,False,29,6
281,True,1.5,structure_learning,425.128401995,rot,90,0.0923368930817,"['left', 'left']","[0.5833740234375, 0.8275330066680908]",images/15.png,1,282,YH,True,0,False,30,6
282,False,1.5,structure_learning,426.633682013,rot,0,0.0963909626007,"['left', 'left']","[0.4441859722137451, 0.8479108810424805]",images/10.png,4,283,YH,True,0,False,31,5
283,False,1.5,structure_learning,428.141988993,unrot,90,0.173799037933,"['right', 'right']","[0.3865981101989746, 0.5913100242614746]",images/15.png,1,284,YH,False,0,False,32,2
284,False,1.5,structure_learning,429.647265911,rot,0,0.282066822052,"['right', 'left']","[0.8433289527893066, 1.2322709560394287]",images/10.png,4,285,YH,False,0,False,33,2
285,False,1.5,structure_learning,431.155880928,rot,0,0.305659770966,"['left', 'left', 'left', 'left', 'left', 'left']","[0.5262889862060547, 0.7309489250183105, 0.9199159145355225, 1.1167078018188477, 1.2817208766937256, 1.4626507759094238]",images/15.png,1,286,YH,False,0,False,34,2
286,False,1.5,structure_learning,432.661140919,rot,0,0.153852939606,"['left', 'left', 'left', 'left', 'left', 'left', 'left']","[0.3269820213317871, 0.4999659061431885, 0.664888858795166, 0.8617520332336426, 1.0426809787750244, 1.2156789302825928, 1.396446943283081]",images/5.png,2,287,YH,False,0,False,35,8
287,False,1.5,structure_learning,434.166433811,rot,0,0.0800349712372,"['left', 'left', 'left', 'left', 'left', 'left', 'left']","[0.2528679370880127, 0.4255368709564209, 0.6223950386047363, 0.7950260639190674, 0.9761478900909424, 1.1726560592651367, 1.361649990081787]",images/13.png,3,288,YH,False,0,False,36,8
288,False,1.5,structure_learning,435.671708822,rot,0,0.0370590686798,"['left', 'left', 'left', 'left', 'left', 'left', 'left', 'left']","[0.20957493782043457, 0.39045000076293945, 0.5714530944824219, 0.7363989353179932, 0.9252159595489502, 1.0979549884796143, 1.279129981994629, 1.4598629474639893]",images/15.png,1,289,YH,False,0,False,37,3
289,False,1.5,structure_learning,437.177145004,rot,0,0.135316848755,"['left', 'left', 'left', 'left', 'left', 'left', 'left']","[0.3321409225463867, 0.5526978969573975, 0.7257289886474609, 0.9304800033569336, 1.1113770008087158, 1.316098928451538, 1.4891369342803955]",images/13.png,3,290,YH,False,0,False,38,2
290,False,1.5,structure_learning,438.682497025,rot,0,0.184906005859,"['left', 'left', 'left', 'left', 'left', 'left']","[0.3976559638977051, 0.5546729564666748, 0.7436740398406982, 0.9324500560760498, 1.1211950778961182, 1.3099510669708252]",images/10.png,4,291,YH,False,0,False,39,6
291,False,1.5,structure_learning,440.191311836,rot,0,0.166871070862,"['left', 'left', 'left', 'left', 'left', 'left']","[0.3718240261077881, 0.5923380851745605, 0.7570319175720215, 0.94610595703125, 1.1508510112762451, 1.3316280841827393]",images/5.png,2,292,YH,False,0,False,40,5
292,False,1.5,structure_learning,441.697952032,rot,0,0.0513789653778,"['left', 'left', 'left', 'left', 'left', 'left', 'left']","[0.21636581420898438, 0.38933897018432617, 0.578233003616333, 0.7750759124755859, 0.9639129638671875, 1.1764400005340576, 1.3732569217681885]",images/10.png,4,293,YH,False,0,False,41,2
293,True,1.5,structure_learning,443.206709862,rot,90,0.962841033936,"['left', 'left']","[1.1756658554077148, 1.3565239906311035]",images/15.png,1,294,YH,False,0,False,42,5
294,False,1.5,structure_learning,444.712239981,rot,0,0.0712940692902,"['left', 'left', 'left', 'left', 'left', 'left']","[0.28382086753845215, 0.4726290702819824, 0.6853289604187012, 0.9297339916229248, 1.1344530582427979, 1.3470349311828613]",images/2.png,0,295,YH,True,0,False,43,14
295,False,1.5,structure_learning,446.217859983,-1,0,-1.0,[],[],images/15.png,1,296,YH,False,0,False,44,2
296,True,1.5,structure_learning,447.723376036,unrot,0,0.261347055435,"['left', 'left']","[0.2777090072631836, 0.9985620975494385]",images/10.png,4,297,YH,False,0,False,45,4
297,False,1.5,structure_learning,449.23208499,-1,0,-1.0,[],[],images/15.png,1,298,YH,True,0,False,46,2
298,True,1.5,structure_learning,450.737483978,unrot,0,0.15477514267,"['left', 'right', 'left', 'left']","[0.17078113555908203, 0.8662970066070557, 0.8982419967651367, 1.4202899932861328]",images/13.png,3,299,YH,False,0,False,47,9
299,True,1.5,structure_learning,452.243062019,unrot,0,0.0634109973907,"['right', 'left', 'left', 'right']","[0.4263780117034912, 0.7914810180664062, 1.3689310550689697, 1.3692920207977295]",images/5.png,2,300,YH,True,0,False,48,8
300,False,1.5,structure_learning,453.748319864,-1,0,-1.0,[],[],images/13.png,3,301,YH,True,0,False,49,2
301,False,1.5,structure_learning,455.25355196,rot,0,0.50986790657,"['left', 'left']","[0.9608688354492188, 1.4438519477844238]",images/15.png,1,302,YH,False,0,False,50,4
302,True,1.5,structure_learning,456.758735895,rot,90,0.588240861893,[],[],images/2.png,0,303,YH,False,0,False,51,8
303,False,1.5,structure_learning,458.264159918,rot,0,0.0823409557343,"['left', 'left', 'left']","[0.4778468608856201, 0.857187032699585, 1.2764079570770264]",images/5.png,2,304,YH,True,0,False,52,4
304,False,1.5,structure_learning,459.769562006,rot,0,0.174154996872,"['left', 'left', 'left']","[0.5537590980529785, 0.9490079879760742, 1.3365280628204346]",images/13.png,3,305,YH,False,0,False,53,4
305,False,1.5,structure_learning,461.275166988,rot,0,0.162998914719,"['left', 'left', 'left']","[0.5188629627227783, 0.8345930576324463, 1.1825129985809326]",images/5.png,2,306,YH,False,0,False,54,2
306,False,1.5,structure_learning,462.780684948,rot,0,0.0237319469452,"['left', 'left', 'left', 'left']","[0.3398628234863281, 0.6795430183410645, 1.1307408809661865, 1.4310438632965088]",images/13.png,3,307,YH,False,0,False,55,2
307,False,1.5,structure_learning,464.286949873,rot,0,0.272933959961,"['left', 'left', 'left']","[0.620654821395874, 0.96834397315979, 1.3562908172607422]",images/2.png,0,308,YH,False,0,False,56,5
308,False,1.5,structure_learning,465.792778969,rot,0,0.206789016724,"['left', 'left', 'left']","[0.5864279270172119, 0.9817309379577637, 1.4805870056152344]",images/13.png,3,309,YH,False,0,False,57,2
309,True,1.5,structure_learning,467.297973871,rot,90,0.291744947433,"['left', 'left', 'left']","[0.6553459167480469, 0.995466947555542, 1.359400987625122]",images/2.png,0,310,YH,False,0,False,58,2
310,False,1.5,structure_learning,468.803141832,rot,0,0.185899972916,"['left', 'left']","[0.5495359897613525, 0.9530749320983887]",images/7.png,14,311,YH,True,2,True,1,152
311,True,1.5,structure_learning,470.308521986,unrot,0,0.372930049896,"['right', 'right']","[1.0071601867675781, 1.466292142868042]",images/3.png,13,312,YH,False,2,False,2,150
312,False,1.5,structure_learning,471.815277815,unrot,90,0.245255947113,"['right', 'right', 'right', 'right']","[0.5533709526062012, 0.9170119762420654, 1.1853868961334229, 1.4855570793151855]",images/7.png,14,313,YH,True,2,False,3,2
313,True,1.5,structure_learning,473.320680857,unrot,0,0.28820681572,['right'],[0.5883278846740723],images/11.png,11,314,YH,False,2,False,4,147
314,True,1.5,structure_learning,474.826063871,unrot,0,0.297653913498,"['right', 'left']","[0.5816400051116943, 0.8515439033508301]",images/6.png,12,315,YH,True,2,False,5,149
315,False,1.5,structure_learning,476.331496954,-1,0,-1.0,[],[],images/3.png,13,316,YH,True,2,False,6,4
316,False,1.5,structure_learning,477.836659908,-1,0,-1.0,[],[],images/11.png,11,317,YH,False,2,False,7,3
317,False,1.5,structure_learning,479.34208703,-1,90,-1.0,[],[],images/3.png,13,318,YH,False,2,False,8,2
318,False,1.5,structure_learning,480.848050833,-1,90,-1.0,[],[],images/7.png,14,319,YH,False,2,False,9,6
319,False,1.5,structure_learning,482.354352951,rot,0,0.302002191544,[],[],images/6.png,12,320,YH,False,2,False,10,5
320,False,1.5,structure_learning,483.859877825,-1,0,-1.0,[],[],images/4.png,10,321,YH,False,2,False,11,122
321,False,1.5,structure_learning,485.365257025,rot,0,0.652348995209,[],[],images/12.png,9,322,YH,False,1,True,1,72
322,False,1.5,structure_learning,486.870556831,rot,0,0.584290981293,['left'],[1.1306850910186768],images/4.png,10,323,YH,False,2,True,1,2
323,False,1.5,structure_learning,488.375775814,rot,0,0.084774017334,"['left', 'left', 'left', 'left', 'left']","[0.3372311592102051, 0.6290080547332764, 0.881723165512085, 1.1022119522094727, 1.3307840824127197]",images/12.png,9,324,YH,False,1,True,1,2
324,False,1.5,structure_learning,489.880895853,rot,0,0.0382599830627,"['left', 'left', 'left', 'left', 'left', 'left']","[0.250823974609375, 0.4875149726867676, 0.7161290645599365, 0.9526069164276123, 1.1730461120605469, 1.4016990661621094]",images/9.png,8,325,YH,False,1,False,2,74
325,True,1.5,structure_learning,491.38613987,rot,90,0.101101160049,"['left', 'left', 'left', 'left', 'left']","[0.3216981887817383, 0.5580720901489258, 0.770794153213501, 1.015233039855957, 1.2676761150360107]",images/14.png,7,326,YH,False,1,False,3,77
326,True,1.5,structure_learning,492.891520977,rot,90,0.00704598426819,"['left', 'left', 'left', 'left', 'left', 'left']","[0.2357649803161621, 0.48807311058044434, 0.7006909847259521, 0.9054000377655029, 1.1182451248168945, 1.3386800289154053]",images/8.png,6,327,YH,True,1,False,4,103
327,False,1.5,structure_learning,494.396709919,rot,0,0.0938451290131,"['left', 'left', 'left', 'left', 'left']","[0.5369679927825928, 0.7575750350952148, 0.9860920906066895, 1.1908249855041504, 1.4035279750823975]",images/1.png,5,328,YH,True,1,False,5,76
328,True,1.5,structure_learning,495.902037859,rot,90,0.134646892548,"['left', 'left', 'left', 'left', 'left', 'left']","[0.3392510414123535, 0.5837628841400146, 0.7963988780975342, 1.0012860298156738, 1.2218358516693115, 1.4661669731140137]",images/9.png,8,329,YH,False,1,False,6,4
329,False,1.5,structure_learning,497.407429934,rot,0,0.172482013702,"['left', 'left', 'left', 'left', 'left']","[0.4327549934387207, 0.6692659854888916, 0.905735969543457, 1.1420989036560059, 1.3706629276275635]",images/8.png,6,330,YH,True,1,False,7,3
330,False,1.5,structure_learning,498.913875818,rot,0,0.125797986984,"['left', 'left', 'left', 'left', 'left', 'left']","[0.33823394775390625, 0.5750260353088379, 0.7797980308532715, 1.000342845916748, 1.2129719257354736, 1.4731218814849854]",images/1.png,5,331,YH,False,1,False,8,3
331,True,1.5,structure_learning,500.419157982,rot,90,0.177602767944,"['left', 'left', 'left', 'left', 'left']","[0.40638089179992676, 0.6268329620361328, 0.855158805847168, 1.0680088996887207, 1.2886769771575928]",images/10.png,4,332,YH,False,0,True,1,35
332,True,1.5,structure_learning,501.927584887,rot,90,0.0118370056152,"['left', 'left', 'left', 'left', 'left', 'left']","[0.21634483337402344, 0.4530179500579834, 0.673447847366333, 0.8940649032592773, 1.1146759986877441, 1.343245029449463]",images/13.png,3,333,YH,True,0,False,2,24
333,False,1.5,structure_learning,503.433086872,rot,0,0.0550019741058,"['left', 'left', 'left', 'left', 'left', 'left']","[0.28363895416259766, 0.5121810436248779, 0.7248129844665527, 0.9613499641418457, 1.1978609561920166, 1.3866949081420898]",images/10.png,4,334,YH,True,0,False,3,2
334,False,1.5,structure_learning,7.58171081543e-05,-1,0,-1.0,[],[],images/1.png,5,335,YH,False,1,True,1,4
335,True,1.5,structure_learning,1.50560688972,rot,90,1.48473906517,[],[],images/10.png,4,336,YH,False,0,True,1,2
336,True,1.5,structure_learning,3.01419401169,rot,90,0.279175043106,"['right', 'left', 'right']","[0.6335420608520508, 0.9031600952148438, 1.0354630947113037]",images/1.png,5,337,YH,True,1,True,1,2
337,True,1.5,structure_learning,4.51956582069,unrot,0,0.203293085098,"['left', 'left', 'left', 'left']","[0.3855559825897217, 0.6538400650024414, 0.8426458835601807, 1.3335769176483154]",images/9.png,8,338,YH,True,1,False,2,9
338,False,1.5,structure_learning,6.02503490448,rot,0,0.0328860282898,"['left', 'left', 'left', 'left', 'left']","[0.30127906799316406, 0.5854201316833496, 0.7580959796905518, 0.9790279865264893, 1.1598351001739502]",images/12.png,9,339,YH,True,1,False,3,15
339,False,1.5,structure_learning,7.53036499023,rot,0,0.835657119751,['left'],[1.302731990814209],images/9.png,8,340,YH,False,1,False,4,2
340,False,1.5,structure_learning,9.0369079113,rot,0,0.184937000275,"['left', 'left', 'left', 'left', 'left']","[0.3894469738006592, 0.6977150440216064, 0.9183270931243896, 1.1310780048370361, 1.3277819156646729]",images/12.png,9,341,YH,False,1,False,5,2
341,False,1.5,structure_learning,10.5422239304,rot,0,0.0195510387421,"['left', 'left', 'left', 'left', 'left', 'left', 'left']","[0.2241041660308838, 0.476531982421875, 0.6813480854034424, 0.8781239986419678, 1.0748510360717773, 1.2797250747680664, 1.4684669971466064]",images/8.png,6,342,YH,False,1,False,6,12
342,True,1.5,structure_learning,12.0475540161,rot,90,0.17570400238,"['left', 'left', 'left', 'left', 'left', 'left']","[0.3804349899291992, 0.5772180557250977, 0.7659521102905273, 0.97865891456604, 1.175482988357544, 1.364267110824585]",images/1.png,5,343,YH,False,1,False,7,6
343,False,1.5,structure_learning,13.5529668331,rot,0,0.0556898117065,"['left', 'left', 'left', 'right', 'left', 'right', 'left']","[0.276317834854126, 0.47307395935058594, 0.669806957244873, 0.9206879138946533, 1.079209804534912, 1.1956567764282227, 1.401075839996338]",images/8.png,6,344,YH,True,1,False,8,2
344,True,1.5,structure_learning,15.0582330227,unrot,0,0.0138790607452,"['left', 'right', 'left', 'right', 'left', 'right', 'left', 'right', 'left', 'right', 'left']","[0.16215205192565918, 0.3018989562988281, 0.42840003967285156, 0.562157154083252, 0.6948599815368652, 0.8114020824432373, 0.9692380428314209, 1.0712530612945557, 1.2195420265197754, 1.3281450271606445, 1.4938690662384033]",images/14.png,7,345,YH,False,1,False,9,19
345,True,1.5,structure_learning,16.5634310246,unrot,0,0.0575351715088,"['left', 'right', 'left', 'right', 'left', 'right', 'left', 'right', 'right', 'left', 'right']","[0.24479198455810547, 0.24550604820251465, 0.4498751163482666, 0.4946751594543457, 0.7081501483917236, 0.7529940605163574, 1.005476951599121, 1.006141185760498, 1.2243900299072266, 1.3897709846496582, 1.4505701065063477]",images/12.png,9,346,YH,True,1,False,10,5
346,False,1.5,structure_learning,18.0685758591,rot,0,0.0954070091248,"['right', 'left', 'right', 'left', 'right', 'right', 'right', 'left']","[0.20553302764892578, 0.32983899116516113, 0.46943187713623047, 0.572307825088501, 0.6727190017700195, 0.9642138481140137, 1.2722408771514893, 1.4468250274658203]",images/14.png,7,347,YH,True,1,False,11,2
347,True,1.5,structure_learning,19.5736248493,unrot,0,0.0257940292358,"['left', 'right', 'left', 'right', 'right', 'right', 'left']","[0.295212984085083, 0.4748070240020752, 0.5694839954376221, 0.6624009609222412, 0.9934728145599365, 1.3014748096466064, 1.4042518138885498]",images/1.png,5,348,YH,False,1,False,12,5
348,True,1.5,structure_learning,21.0788118839,unrot,0,0.150424957275,"['right', 'left', 'right']","[0.4424448013305664, 0.7122938632965088, 0.939208984375]",images/14.png,7,349,YH,True,1,False,13,2
349,False,1.5,structure_learning,22.5838358402,-1,0,-1.0,[],[],images/12.png,9,350,YH,True,1,False,14,4
350,True,1.5,structure_learning,24.0888078213,rot,90,0.253982067108,['right'],[0.36267900466918945],images/8.png,6,351,YH,False,1,False,15,7
351,True,1.5,structure_learning,25.59405303,unrot,0,0.94335103035,[],[],images/9.png,8,352,YH,True,1,False,16,12
352,False,1.5,structure_learning,27.0993599892,rot,0,0.443733930588,"['right', 'left', 'right']","[0.9158608913421631, 1.2752869129180908, 1.4638259410858154]",images/8.png,6,353,YH,True,1,False,17,2
353,True,1.5,structure_learning,28.6059668064,rot,90,0.241059064865,['left'],[0.8249771595001221],images/12.png,9,354,YH,False,1,False,18,4
354,False,1.5,structure_learning,30.111112833,rot,0,1.14807295799,['right'],[1.2660839557647705],images/4.png,10,355,YH,True,2,True,1,32
355,False,1.5,structure_learning,31.6167778969,rot,0,0.555552005768,['right'],[0.6737048625946045],images/12.png,9,356,YH,False,1,True,1,2
356,True,1.5,structure_learning,33.1219270229,rot,90,0.7896900177,"['right', 'right', 'left', 'right']","[0.9850921630859375, 1.1897790431976318, 1.2059149742126465, 1.4323580265045166]",images/8.png,6,357,YH,False,1,False,2,4
357,True,1.5,structure_learning,34.627065897,unrot,0,0.394208192825,"['right', 'right', 'right', 'right', 'right', 'right']","[0.6148841381072998, 0.8036980628967285, 0.9925351142883301, 1.1576180458068848, 1.3226070404052734, 1.4953551292419434]",images/9.png,8,358,YH,True,1,False,3,6
358,True,1.5,structure_learning,36.1322419643,unrot,0,0.147609233856,"['right', 'right', 'right', 'right', 'right', 'right', 'right', 'right']","[0.32056617736816406, 0.4854621887207031, 0.6425540447235107, 0.8075160980224609, 0.9644420146942139, 1.1294221878051758, 1.2865371704101562, 1.44350004196167]",images/8.png,6,359,YH,True,1,False,4,2
359,True,1.5,structure_learning,37.6372699738,unrot,0,0.103384971619,"['right', 'right', 'right', 'left', 'left', 'right']","[0.26025891304016113, 0.4175069332122803, 0.5822770595550537, 1.098620891571045, 1.3431620597839355, 1.4667670726776123]",images/14.png,7,360,YH,True,1,False,5,11
360,False,1.5,structure_learning,39.1423318386,rot,0,0.0211181640625,"['right', 'left', 'right', 'left', 'right']","[0.11621403694152832, 0.7541971206665039, 0.9534001350402832, 1.1360499858856201, 1.296260118484497]",images/1.png,5,361,YH,True,1,False,6,13
361,False,1.5,structure_learning,40.6476759911,rot,0,0.0723040103912,"['right', 'left', 'right', 'left', 'right', 'left']","[0.1551210880279541, 0.4530200958251953, 0.5360660552978516, 1.0255000591278076, 1.1957850456237793, 1.4566590785980225]",images/8.png,6,362,YH,False,1,False,7,3
362,False,1.5,structure_learning,42.1529839039,unrot,90,0.116405963898,"['left', 'right', 'left', 'right', 'left', 'right']","[0.3909459114074707, 0.541693925857544, 0.8239798545837402, 0.9942348003387451, 1.2522799968719482, 1.4234509468078613]",images/12.png,9,363,YH,False,1,False,8,7
363,True,1.5,structure_learning,43.6580820084,unrot,0,0.321063995361,['right'],[0.9177138805389404],images/8.png,6,364,YH,False,1,False,9,2
364,True,1.5,structure_learning,45.1631968021,unrot,0,0.539620876312,"['right', 'left', 'left']","[1.0612859725952148, 1.1951370239257812, 1.4239099025726318]",images/12.png,9,365,YH,True,1,False,10,2
365,True,1.5,structure_learning,46.6682739258,unrot,0,0.129762172699,"['left', 'right', 'left', 'right', 'left', 'right']","[0.25469422340393066, 0.34139418601989746, 0.8765451908111572, 1.0628859996795654, 1.2844350337982178, 1.471086025238037]",images/4.png,10,366,YH,True,2,True,1,11
366,False,1.5,structure_learning,48.1735749245,rot,0,0.186414957047,"['right', 'left', 'right', 'left']","[0.3724539279937744, 0.7907440662384033, 0.9996521472930908, 1.4883620738983154]",images/12.png,9,367,YH,True,1,True,1,2
367,True,1.5,structure_learning,49.6788768768,unrot,0,0.174735069275,"['left', 'right', 'left', 'right', 'right']","[0.6475980281829834, 0.8190219402313232, 1.2631490230560303, 1.2637939453125, 1.3936851024627686]",images/4.png,10,368,YH,False,2,True,1,2
368,False,1.5,structure_learning,51.1853489876,unrot,90,0.0617179870605,"['left', 'right', 'left', 'right', 'right', 'left', 'left', 'left', 'right']","[0.18814778327941895, 0.25723791122436523, 0.3973429203033447, 0.5304198265075684, 0.7593138217926025, 0.9656069278717041, 1.1702358722686768, 1.3033528327941895, 1.4747459888458252]",images/12.png,9,369,YH,True,1,True,1,2
369,True,1.5,structure_learning,52.6904108524,unrot,0,0.149816989899,"['right', 'right', 'right', 'right', 'right']","[0.3625478744506836, 0.7025659084320068, 0.8833749294281006, 1.072171926498413, 1.2690818309783936]",images/9.png,8,370,YH,False,1,False,2,12
370,True,1.5,structure_learning,54.1960568428,unrot,0,0.000140905380249,"['right', 'right', 'right', 'right', 'right']","[0.42678403854370117, 0.6633739471435547, 0.8760659694671631, 1.0889558792114258, 1.3014378547668457]",images/1.png,5,371,YH,True,1,False,3,10
371,False,1.5,structure_learning,55.7020728588,unrot,90,0.323598146439,"['right', 'right', 'right', 'right']","[0.5759069919586182, 0.7567319869995117, 1.0012919902801514, 1.1981220245361328]",images/10.png,4,372,YH,True,0,True,1,36
372,False,1.5,structure_learning,57.2106878757,unrot,90,0.104242086411,"['right', 'right']","[0.3167109489440918, 0.5058510303497314]",images/5.png,2,373,YH,False,0,False,2,67
373,True,1.5,structure_learning,58.7161049843,unrot,0,0.259713888168,"['right', 'right']","[0.4485180377960205, 0.6216559410095215]",images/10.png,4,374,YH,False,0,False,3,2
374,True,1.5,structure_learning,60.2242569923,unrot,0,0.298683166504,"['left', 'right', 'left']","[0.6719760894775391, 0.9785120487213135, 1.0581660270690918]",images/15.png,1,375,YH,True,0,False,4,73
375,True,1.5,structure_learning,61.729542017,unrot,0,0.00965309143066,"['right', 'right']","[0.2698349952697754, 0.5301921367645264]",images/2.png,0,376,YH,True,0,False,5,66
376,True,1.5,structure_learning,63.2349569798,unrot,0,0.436980009079,"['left', 'right', 'right', 'right']","[0.45305395126342773, 0.7350749969482422, 1.0431311130523682, 1.2795641422271729]",images/13.png,3,377,YH,True,0,False,6,44
377,True,1.5,structure_learning,64.7413158417,unrot,0,0.050411939621,"['right', 'right', 'right', 'right', 'right']","[0.3110511302947998, 0.6189501285552979, 0.8872339725494385, 1.131622076034546, 1.4078290462493896]",images/2.png,0,378,YH,True,0,False,7,2
378,True,1.5,structure_learning,66.2466549873,unrot,0,0.170912981033,"['left', 'left', 'right', 'right']","[0.44874095916748047, 0.7647778987884521, 0.8334920406341553, 1.0771920680999756]",images/13.png,3,379,YH,True,0,False,8,2
379,False,1.5,structure_learning,67.751942873,rot,0,0.0166430473328,"['right', 'left', 'right', 'left']","[0.3471050262451172, 0.9589049816131592, 0.9798128604888916, 1.2489838600158691]",images/2.png,0,380,YH,True,0,False,9,2
380,True,1.5,structure_learning,69.25730896,rot,90,0.94913315773,['left'],[1.2017481327056885],images/7.png,14,381,YH,False,2,True,1,62
381,False,1.5,structure_learning,70.763794899,rot,0,0.081759929657,"['left', 'right', 'left']","[0.47712087631225586, 0.6961569786071777, 0.9978718757629395]",images/3.png,13,382,YH,True,2,False,2,64
382,False,1.5,structure_learning,72.2711479664,rot,0,0.647526979446,"['right', 'left', 'right']","[1.1490230560302734, 1.371157169342041, 1.392186164855957]",images/11.png,11,383,YH,False,2,False,3,66
383,True,1.5,structure_learning,73.7765648365,unrot,0,0.0988280773163,"['left', 'right', 'left', 'left', 'right']","[0.2970609664916992, 0.4208841323852539, 0.7623960971832275, 0.959460973739624, 1.4820020198822021]",images/7.png,14,384,YH,False,2,False,4,3
384,True,1.5,structure_learning,75.2819578648,unrot,0,0.43283700943,"['right', 'right', 'right', 'right', 'right']","[0.6455841064453125, 0.8502659797668457, 1.015287160873413, 1.1643621921539307, 1.337278127670288]",images/3.png,13,385,YH,True,2,False,5,3
385,True,1.5,structure_learning,76.7886109352,unrot,0,0.0191721916199,"['right', 'right', 'right']","[0.20049500465393066, 0.349606990814209, 0.5380740165710449]",images/6.png,12,386,YH,True,2,False,6,66
386,False,1.5,structure_learning,78.2951748371,rot,0,0.0823180675507,"['right', 'left', 'left', 'right']","[0.40491795539855957, 0.6753621101379395, 1.1177959442138672, 1.186553955078125]",images/4.png,10,387,YH,True,2,False,7,19
387,True,1.5,structure_learning,79.800673008,unrot,0,0.0284049510956,"['left', 'left', 'right', 'right', 'left']","[0.1773519515991211, 0.5109357833862305, 0.5716369152069092, 0.910930871963501, 1.1976549625396729]",images/3.png,13,388,YH,False,2,False,8,3
388,False,1.5,structure_learning,81.3059978485,-1,0,-1.0,[],[],images/4.png,10,389,YH,True,2,False,9,2
389,True,1.5,structure_learning,82.8118298054,unrot,0,1.42505002022,[],[],images/11.png,11,390,YH,False,2,False,10,7
390,False,1.5,structure_learning,84.3182868958,rot,0,0.212729215622,"['right', 'left', 'left', 'right', 'right', 'right']","[0.2133781909942627, 0.38423609733581543, 0.7638201713562012, 0.9592750072479248, 1.164018154144287, 1.3449280261993408]",images/6.png,12,391,YH,True,2,False,11,5
391,True,1.5,structure_learning,85.8235428333,unrot,0,0.012885093689,"['left', 'right', 'left', 'right', 'left', 'left', 'right', 'left']","[0.4019780158996582, 0.5575160980224609, 0.7391359806060791, 0.7397620677947998, 0.9030320644378662, 1.0607469081878662, 1.2234361171722412, 1.4217240810394287]",images/4.png,10,392,YH,False,2,False,12,3
392,True,1.5,structure_learning,87.3286368847,unrot,0,0.0879199504852,"['left', 'right', 'left', 'right', 'left', 'right', 'right']","[0.4057168960571289, 0.47597694396972656, 0.9582118988037109, 0.9870591163635254, 1.137166976928711, 1.2293341159820557, 1.3859810829162598]",images/12.png,9,393,YH,True,1,True,1,24
393,True,1.5,structure_learning,88.8336489201,unrot,0,0.141186952591,"['right', 'right', 'right']","[0.44724607467651367, 0.524730920791626, 1.1634368896484375]",images/14.png,7,394,YH,True,1,False,2,34
394,False,1.5,structure_learning,90.3387758732,rot,0,1.03421115875,"['right', 'right', 'left']","[1.0345861911773682, 1.1901090145111084, 1.35660719871521]",images/9.png,8,395,YH,True,1,False,3,25
395,True,1.5,structure_learning,91.8440308571,unrot,0,0.0943140983582,"['right', 'right', 'right', 'right', 'left']","[0.2909581661224365, 0.6546630859375, 0.9468231201171875, 1.3183810710906982, 1.4766240119934082]",images/14.png,7,396,YH,False,1,False,4,2
396,True,1.5,structure_learning,93.3491699696,unrot,0,0.135102987289,"['right', 'right', 'left', 'right', 'right', 'right']","[0.3636748790740967, 0.5605258941650391, 0.7937178611755371, 0.8538908958435059, 1.1852879524230957, 1.3704488277435303]",images/12.png,9,397,YH,True,1,False,5,4
397,False,1.5,structure_learning,94.8543958664,rot,0,0.109187841415,"['right', 'right', 'left', 'right', 'right']","[0.2175760269165039, 0.5082519054412842, 0.984320878982544, 1.0912108421325684, 1.3426098823547363]",images/9.png,8,398,YH,True,1,False,6,3
398,False,1.5,structure_learning,96.3595278263,rot,0,1.15655398369,['left'],[1.2816150188446045],images/1.png,5,399,YH,False,1,False,7,28
399,True,1.5,structure_learning,97.8649709225,unrot,0,0.263664960861,"['left', 'right', 'left', 'right', 'left', 'left', 'right']","[0.4619150161743164, 0.5545210838317871, 0.6467499732971191, 0.8499760627746582, 1.0881359577178955, 1.3327150344848633, 1.4014041423797607]",images/9.png,8,400,YH,False,1,False,8,2
400,False,1.5,structure_learning,99.3702759743,rot,0,0.22887301445,"['right', 'left', 'right']","[0.4322388172149658, 0.6382598876953125, 0.8415029048919678]",images/14.png,7,401,YH,True,1,False,9,5
401,True,1.5,structure_learning,100.875502825,unrot,0,0.0722670555115,"['right', 'left', 'right']","[0.6022920608520508, 0.8453361988067627, 1.031630039215088]",images/8.png,6,402,YH,False,1,False,10,38
402,False,1.5,structure_learning,102.380605936,rot,0,0.175112009048,"['right', 'right', 'left', 'left']","[0.6386470794677734, 0.8673028945922852, 1.2861618995666504, 1.4629740715026855]",images/1.png,5,403,YH,True,1,False,11,4
403,False,1.5,structure_learning,103.88598299,unrot,90,0.746271133423,"['right', 'right', 'right']","[0.9590201377868652, 1.1397371292114258, 1.3285791873931885]",images/10.png,4,404,YH,False,0,True,1,30
404,True,1.5,structure_learning,105.395787001,unrot,0,-0.00118184089661,"['right', 'right', 'right', 'left', 'right']","[0.2862131595611572, 0.5228040218353271, 0.7149500846862793, 1.1085500717163086, 1.3276631832122803]",images/1.png,5,405,YH,False,1,True,1,2
405,False,1.5,structure_learning,106.901463985,unrot,90,0.229584932327,"['right', 'right', 'right', 'right', 'right']","[0.42629504203796387, 0.63897705078125, 0.8199119567871094, 1.0165660381317139, 1.237260103225708]",images/14.png,7,406,YH,True,1,False,2,5
406,False,1.5,structure_learning,108.406867027,unrot,90,0.0240461826324,"['right', 'right', 'right', 'right', 'right']","[0.5467031002044678, 0.7910940647125244, 1.043524980545044, 1.2082631587982178, 1.4210000038146973]",images/9.png,8,407,YH,False,1,False,3,7
407,False,1.5,structure_learning,109.912007809,rot,0,0.781642913818,['right'],[1.1578590869903564],images/1.png,5,408,YH,False,1,False,4,3
408,True,1.5,structure_learning,111.417271852,unrot,0,1.27236199379,['right'],[1.4450509548187256],images/9.png,8,409,YH,False,1,False,5,2
409,True,1.5,structure_learning,112.922976017,unrot,0,0.159101963043,"['right', 'right', 'right', 'right']","[0.4989778995513916, 0.8149240016937256, 1.0674738883972168, 1.2960078716278076]",images/12.png,9,410,YH,True,1,False,6,13
410,True,1.5,structure_learning,114.429596901,unrot,0,1.41656303406,[],[],images/4.png,10,411,YH,True,2,True,1,19
411,True,1.5,structure_learning,115.934737921,unrot,0,0.139825820923,"['right', 'right', 'right', 'right']","[0.41614484786987305, 0.6765379905700684, 0.9925658702850342, 1.3007588386535645]",images/6.png,12,412,YH,True,2,False,2,21
412,True,1.5,structure_learning,117.439926863,unrot,0,0.302264928818,"['left', 'left']","[0.913999080657959, 1.2934401035308838]",images/4.png,10,413,YH,True,2,False,3,2
413,False,1.5,structure_learning,118.945097923,rot,0,0.30316400528,"['left', 'left', 'left', 'right']","[0.5715610980987549, 0.8081250190734863, 1.068471908569336, 1.3591499328613281]",images/12.png,9,414,YH,True,1,True,1,4
414,True,1.5,structure_learning,120.450500965,unrot,0,0.105336904526,"['right', 'right', 'left', 'left', 'right', 'left']","[0.3260810375213623, 0.5228309631347656, 0.7368841171264648, 1.0847620964050293, 1.1535940170288086, 1.326874017715454]",images/14.png,7,415,YH,False,1,False,2,9
415,True,1.5,structure_learning,121.957033873,rot,90,0.500334024429,"['right', 'left', 'right', 'left', 'right']","[0.6117701530456543, 0.7269020080566406, 0.8997809886932373, 1.34462308883667, 1.3895821571350098]",images/8.png,6,416,YH,True,1,False,3,14
416,False,1.5,structure_learning,123.462103844,rot,0,0.0657279491425,"['right', 'left', 'right', 'left', 'right', 'left']","[0.15198302268981934, 0.7297959327697754, 0.8066620826721191, 0.996129035949707, 1.0743861198425293, 1.2451391220092773]",images/9.png,8,417,YH,True,1,False,4,8
417,False,1.5,structure_learning,124.967342854,rot,0,0.064493894577,"['right', 'left', 'left', 'right', 'left']","[0.15717196464538574, 0.2753639221191406, 0.9175760746002197, 1.0242838859558105, 1.316598892211914]",images/14.png,7,418,YH,False,1,False,5,3
418,True,1.5,structure_learning,126.473491907,unrot,0,0.498088121414,"['left', 'left', 'right']","[0.7101280689239502, 1.127614974975586, 1.2900841236114502]",images/1.png,5,419,YH,False,1,False,6,11
419,False,1.5,structure_learning,127.978715897,rot,0,0.263322114944,"['left', 'left', 'left']","[0.688647985458374, 0.8811960220336914, 1.3205411434173584]",images/10.png,4,420,YH,True,0,True,1,16
420,True,1.5,structure_learning,129.48721385,rot,90,0.166868209839,"['right', 'right', 'left']","[0.3847801685333252, 0.9058811664581299, 1.0482590198516846]",images/5.png,2,421,YH,False,0,False,2,48
421,False,1.5,structure_learning,130.992950916,rot,0,0.859382867813,['left'],[1.454204797744751],images/15.png,1,422,YH,True,0,False,3,47
422,False,1.5,structure_learning,132.499210835,rot,0,0.447579860687,"['left', 'left']","[0.9067950248718262, 1.3103740215301514]",images/5.png,2,423,YH,False,0,False,4,2
423,False,1.5,structure_learning,134.004346848,rot,0,0.284702062607,"['left', 'left', 'left', 'left']","[0.5769710540771484, 0.7895300388336182, 1.0022590160369873, 1.2627339363098145]",images/10.png,4,424,YH,False,0,False,5,4
424,False,1.5,structure_learning,135.512857914,-1,0,-1.0,[],[],images/13.png,3,425,YH,False,0,False,6,46
425,False,1.5,structure_learning,137.018191814,-1,90,-1.0,[],[],images/10.png,4,426,YH,False,0,False,7,2
426,False,1.5,structure_learning,138.526580811,-1,0,-1.0,[],[],images/5.png,2,427,YH,False,0,False,8,4
427,False,1.5,structure_learning,140.031867981,-1,90,-1.0,[],[],images/10.png,4,428,YH,False,0,False,9,2
428,False,1.5,structure_learning,141.540186882,-1,90,-1.0,[],[],images/15.png,1,429,YH,False,0,False,10,7
429,False,1.5,structure_learning,143.045491934,-1,0,-1.0,[],[],images/2.png,0,430,YH,False,0,False,11,50
430,False,1.5,structure_learning,144.550750017,-1,0,-1.0,[],[],images/7.png,14,431,YH,False,2,True,1,47
431,True,1.5,structure_learning,146.055992842,unrot,0,0.607236146927,[],[],images/6.png,12,432,YH,False,2,False,2,20
432,True,1.5,structure_learning,147.564303875,unrot,0,0.427196979523,[],[],images/3.png,13,433,YH,True,2,False,3,45
433,False,1.5,structure_learning,149.069880009,rot,0,0.217191934586,[],[],images/6.png,12,434,YH,True,2,False,4,2
434,True,1.5,structure_learning,150.575235844,unrot,0,0.27423119545,[],[],images/3.png,13,435,YH,False,2,False,5,2
435,True,1.5,structure_learning,152.080974817,unrot,0,0.389198064804,[],[],images/11.png,11,436,YH,True,2,False,6,46
436,False,1.5,structure_learning,153.586390972,unrot,90,0.0346291065216,['right'],[1.2851240634918213],images/7.png,14,437,YH,True,2,False,7,6
437,True,1.5,structure_learning,155.091632843,unrot,0,0.419810056686,"['right', 'right']","[0.6325249671936035, 0.8848891258239746]",images/3.png,13,438,YH,False,2,False,8,3
438,True,1.5,structure_learning,156.596990824,unrot,0,0.746643066406,[],[],images/4.png,10,439,YH,True,2,False,9,26
439,False,1.5,structure_learning,158.102339029,unrot,90,0.374665021896,['right'],[0.6590180397033691],images/3.png,13,440,YH,True,2,False,10,2
440,True,1.5,structure_learning,159.609014034,unrot,0,0.60692191124,[],[],images/6.png,12,441,YH,False,2,False,11,7
441,False,1.5,structure_learning,161.114416838,-1,0,-1.0,[],[],images/7.png,14,442,YH,True,2,False,12,5
442,False,1.5,structure_learning,162.61974597,rot,0,0.445723056793,['left'],[0.8868370056152344],images/2.png,0,443,YH,False,0,True,1,13
443,True,1.5,structure_learning,164.124982834,rot,90,0.202730894089,"['right', 'left', 'right', 'left']","[0.4219169616699219, 0.6679039001464844, 0.8553128242492676, 1.172940969467163]",images/13.png,3,444,YH,False,0,False,2,19
444,True,1.5,structure_learning,165.630147934,unrot,0,0.0134589672089,"['left', 'left', 'right', 'left', 'right', 'left']","[0.30716609954833984, 0.6790361404418945, 0.7556800842285156, 1.0647611618041992, 1.2917699813842773, 1.43442702293396]",images/2.png,0,445,YH,True,0,False,3,2
445,True,1.5,structure_learning,167.135713816,unrot,0,0.0127987861633,"['left', 'right', 'right', 'left', 'right']","[0.13872599601745605, 0.38997697830200195, 0.7299408912658691, 0.8787658214569092, 1.0916848182678223]",images/15.png,1,446,YH,True,0,False,4,17
446,True,1.5,structure_learning,168.642021894,rot,90,0.0102660655975,"['right', 'left']","[0.36441516876220703, 0.9205281734466553]",images/10.png,4,447,YH,True,0,False,5,19
447,False,1.5,structure_learning,170.150434017,rot,0,0.106590032578,"['right', 'right']","[0.7169389724731445, 0.9755859375]",images/5.png,2,448,YH,True,0,False,6,21
448,False,1.5,structure_learning,171.65596199,rot,0,0.505699157715,"['right', 'right']","[0.8747131824493408, 1.1981260776519775]",images/13.png,3,449,YH,False,0,False,7,5
449,False,1.5,structure_learning,173.161232948,-1,0,-1.0,[],[],images/15.png,1,450,YH,False,0,False,8,4
450,False,1.5,structure_learning,174.666457891,rot,0,0.0830171108246,"['right', 'right', 'right', 'left', 'right']","[0.5226211547851562, 0.7511610984802246, 0.9559040069580078, 1.3330450057983398, 1.377676010131836]",images/13.png,3,451,YH,False,0,False,9,2
451,False,1.5,structure_learning,176.171602964,rot,0,0.0433859825134,"['right', 'left', 'right', 'left', 'right', 'left', 'right', 'right']","[0.09621882438659668, 0.21454095840454102, 0.49718499183654785, 0.6398518085479736, 0.7005178928375244, 0.8108158111572266, 0.8947348594665527, 1.2109529972076416]",images/10.png,4,452,YH,False,0,False,10,5
452,False,1.5,structure_learning,177.679906845,-1,0,-1.0,[],[],images/1.png,5,453,YH,False,1,True,1,34
453,True,1.5,structure_learning,179.185971022,unrot,0,0.9804251194,[],[],images/8.png,6,454,YH,False,1,False,2,38
454,True,1.5,structure_learning,180.691509008,unrot,0,0.0611798763275,"['right', 'right']","[0.4170210361480713, 0.9875409603118896]",images/12.png,9,455,YH,True,1,False,3,41
455,False,1.5,structure_learning,182.197012901,-1,0,-1.0,[],[],images/4.png,10,456,YH,True,2,True,1,17
456,False,1.5,structure_learning,183.702580929,-1,0,-1.0,[],[],images/3.png,13,457,YH,False,2,False,2,17
457,False,1.5,structure_learning,185.208349943,-1,0,-1.0,[],[],images/6.png,12,458,YH,False,2,False,3,17
458,False,1.5,structure_learning,186.713960886,-1,0,-1.0,[],[],images/7.png,14,459,YH,False,2,False,4,17
459,False,1.5,structure_learning,188.219388008,-1,0,-1.0,[],[],images/3.png,13,460,YH,False,2,False,5,3
460,False,1.5,structure_learning,189.724835873,-1,0,-1.0,[],[],images/11.png,11,461,YH,False,2,False,6,25
461,False,1.5,structure_learning,191.230298996,-1,0,-1.0,[],[],images/3.png,13,462,YH,False,2,False,7,2
462,False,1.5,structure_learning,192.735817909,-1,0,-1.0,[],[],images/7.png,14,463,YH,False,2,False,8,4
463,False,1.5,structure_learning,194.241377831,-1,90,-1.0,[],[],images/3.png,13,464,YH,False,2,False,9,2
464,True,1.5,structure_learning,195.746629,unrot,0,0.927680015564,['right'],[1.1568169593811035],images/11.png,11,465,YH,False,2,False,10,4
465,True,1.5,structure_learning,197.252097845,unrot,0,0.221906900406,['right'],[0.5299530029296875],images/4.png,10,466,YH,True,2,False,11,10
466,False,1.5,structure_learning,198.757530928,unrot,90,1.33699393272,[],[],images/12.png,9,467,YH,True,1,True,1,12
467,True,1.5,structure_learning,200.262516975,unrot,0,0.100158929825,"['right', 'right', 'left', 'right', 'left']","[0.3844449520111084, 0.6128940582275391, 1.0339641571044922, 1.2528800964355469, 1.2928390502929688]",images/8.png,6,468,YH,False,1,False,2,14
468,False,1.5,structure_learning,201.767804861,rot,0,0.0143361091614,"['right', 'left', 'right', 'left', 'left', 'right', 'left', 'right', 'left', 'right', 'left', 'right', 'right', 'left']","[0.19379711151123047, 0.2738039493560791, 0.42855095863342285, 0.468364953994751, 0.6877880096435547, 0.6878480911254883, 0.6877880096435547, 0.6878480911254883, 1.034696102142334, 1.0555939674377441, 1.2681961059570312, 1.2685351371765137, 1.4623889923095703, 1.4783320426940918]",images/9.png,8,469,YH,True,1,False,3,52
469,True,1.5,structure_learning,203.274139881,unrot,0,0.191637039185,"['right', 'right', 'right', 'right', 'right']","[0.452164888381958, 0.7050609588623047, 0.9491579532623291, 1.1699230670928955, 1.3987679481506348]",images/8.png,6,470,YH,False,1,False,4,2
470,True,1.5,structure_learning,204.77937603,unrot,0,0.17734003067,"['right', 'right', 'right', 'right']","[0.4378368854522705, 0.7141368389129639, 1.0222718715667725, 1.314729928970337]",images/1.png,5,471,YH,True,1,False,5,18
471,True,1.5,structure_learning,206.284934998,unrot,0,0.0982739925385,"['right', 'right', 'right', 'right', 'right']","[0.34290504455566406, 0.635012149810791, 0.9511921405792236, 1.2035820484161377, 1.4958980083465576]",images/10.png,4,472,YH,True,0,True,1,20
472,True,1.5,structure_learning,207.793474913,unrot,0,0.511879920959,"['right', 'right']","[1.0747630596160889, 1.4229650497436523]",images/15.png,1,473,YH,True,0,False,2,23
473,True,1.5,structure_learning,209.300158978,unrot,0,0.209781885147,"['right', 'right', 'right', 'right']","[0.4943089485168457, 0.7863399982452393, 1.070746898651123, 1.410660982131958]",images/13.png,3,474,YH,True,0,False,3,23
474,True,1.5,structure_learning,210.805418968,unrot,0,0.200288057327,"['right', 'right', 'left', 'right', 'left']","[0.5006790161132812, 0.7929601669311523, 1.0786831378936768, 1.2909250259399414, 1.4014501571655273]",images/10.png,4,475,YH,True,0,False,4,3
475,False,1.5,structure_learning,212.315860987,rot,0,0.107980966568,"['right', 'left', 'right', 'left', 'right', 'left', 'right', 'left', 'right']","[0.1610250473022461, 0.3268618583679199, 0.3877079486846924, 0.5057549476623535, 0.5984430313110352, 0.732306957244873, 0.7851688861846924, 0.936255931854248, 1.2101259231567383]",images/5.png,2,476,YH,True,0,False,5,28
476,False,1.5,structure_learning,213.82145381,-1,0,-1.0,[],[],images/15.png,1,477,YH,False,0,False,6,4
477,False,1.5,structure_learning,215.326730967,rot,0,1.2742331028,['right'],[1.2746131420135498],images/13.png,3,478,YH,False,0,False,7,4
478,True,1.5,structure_learning,216.83219099,unrot,0,0.266803026199,"['left', 'right', 'right', 'right', 'right']","[0.28274083137512207, 0.588824987411499, 0.8173668384552002, 1.2448019981384277, 1.465547800064087]",images/15.png,1,479,YH,False,0,False,8,2
479,False,1.5,structure_learning,218.337441921,unrot,90,0.204856157303,"['right', 'right', 'right', 'right']","[0.4335641860961914, 0.6461670398712158, 1.19287109375, 1.4056730270385742]",images/2.png,0,480,YH,True,0,False,9,35
480,True,1.5,structure_learning,219.842809916,unrot,0,0.0891189575195,"['right', 'right', 'right', 'right', 'right', 'right']","[0.26210999488830566, 0.4351460933685303, 0.6081790924072266, 0.8048901557922363, 1.1686689853668213, 1.4446649551391602]",images/13.png,3,481,YH,False,0,False,10,3
481,True,1.5,structure_learning,221.348069906,unrot,0,0.160331964493,['right'],[0.39700984954833984],images/2.png,0,482,YH,True,0,False,11,2
482,False,1.5,structure_learning,222.853354931,-1,0,-1.0,[],[],images/7.png,14,483,YH,True,2,True,1,20
483,False,1.5,structure_learning,224.358716011,-1,0,-1.0,[],[],images/3.png,13,484,YH,False,2,False,2,20
484,False,1.5,structure_learning,225.864269972,-1,0,-1.0,[],[],images/7.png,14,485,YH,False,2,False,3,2
485,False,1.5,structure_learning,227.369617939,-1,0,-1.0,[],[],images/3.png,13,486,YH,False,2,False,4,2
486,False,1.5,structure_learning,228.875116825,-1,0,-1.0,[],[],images/6.png,12,487,YH,False,2,False,5,29
487,True,1.5,structure_learning,230.380635977,unrot,0,0.394891023636,"['right', 'left']","[0.8144049644470215, 1.2033159732818604]",images/11.png,11,488,YH,False,2,False,6,23
488,True,1.5,structure_learning,231.886292934,unrot,0,0.0724279880524,"['left', 'right']","[0.5329270362854004, 1.205143928527832]",images/3.png,13,489,YH,True,2,False,7,3
489,False,1.5,structure_learning,233.395291805,rot,0,0.963319063187,[],[],images/4.png,10,490,YH,True,2,False,8,24
490,True,1.5,structure_learning,234.901003838,unrot,0,0.464197158813,['right'],[1.2811641693115234],images/6.png,12,491,YH,False,2,False,9,4
491,False,1.5,structure_learning,236.406420946,rot,0,1.49249696732,[],[],images/4.png,10,492,YH,True,2,False,10,2
492,True,1.5,structure_learning,237.912001848,unrot,0,1.08012199402,[],[],images/11.png,11,493,YH,False,2,False,11,5
493,False,1.5,structure_learning,239.418251991,-1,0,-1.0,[],[],images/7.png,14,494,YH,True,2,False,12,9
494,True,1.5,structure_learning,240.923522949,unrot,0,1.43079304695,[],[],images/6.png,12,495,YH,False,2,False,13,4
495,True,1.5,structure_learning,242.428957939,unrot,0,0.138073921204,"['right', 'right', 'right', 'right', 'right', 'right', 'right']","[0.32683300971984863, 0.5076389312744141, 0.7045459747314453, 0.8852999210357666, 1.0661640167236328, 1.2550179958343506, 1.4438669681549072]",images/3.png,13,496,YH,True,2,False,14,7
496,True,1.5,structure_learning,243.934441805,unrot,0,0.126996994019,"['right', 'right', 'right', 'right', 'right', 'right', 'right']","[0.3079359531402588, 0.520643949508667, 0.7094669342041016, 0.8903779983520508, 1.0872070789337158, 1.2522051334381104, 1.4966681003570557]",images/11.png,11,497,YH,True,2,False,15,4
497,True,1.5,structure_learning,245.440084934,unrot,0,0.196039915085,"['right', 'right', 'right', 'right', 'right']","[0.4006979465484619, 0.6214470863342285, 0.8342750072479248, 1.0311651229858398, 1.4025359153747559]",images/4.png,10,498,YH,True,2,False,16,6
498,True,1.5,structure_learning,246.94560194,unrot,0,0.117897033691,"['right', 'right', 'right', 'right', 'right', 'right', 'right']","[0.3146960735321045, 0.5195281505584717, 0.7004220485687256, 0.9131631851196289, 1.1258070468902588, 1.322754144668579, 1.4877049922943115]",images/12.png,9,499,YH,True,1,True,1,32
499,False,1.5,structure_learning,248.45102191,unrot,90,0.179075956345,"['right', 'right', 'right', 'right', 'right', 'right']","[0.3758528232574463, 0.5567247867584229, 0.761483907699585, 0.9660577774047852, 1.147195816040039, 1.3359169960021973]",images/4.png,10,500,YH,True,2,True,1,2
500,True,1.5,structure_learning,249.95655489,unrot,0,0.0114099979401,"['right', 'right', 'right', 'right', 'right', 'right', 'right']","[0.2082529067993164, 0.4131309986114502, 0.5939679145812988, 0.7748730182647705, 0.9716370105743408, 1.1844298839569092, 1.3812320232391357]",images/3.png,13,501,YH,False,2,False,2,5
501,True,1.5,structure_learning,251.46218586,unrot,0,0.0608038902283,"['right', 'right', 'right', 'right']","[0.24995899200439453, 0.4388139247894287, 0.627471923828125, 0.8163259029388428]",images/11.png,11,502,YH,True,2,False,3,5
502,False,1.5,structure_learning,252.971338987,-1,0,-1.0,[],[],images/4.png,10,503,YH,True,2,False,4,3
503,False,1.5,structure_learning,254.476670027,-1,0,-1.0,[],[],images/6.png,12,504,YH,False,2,False,5,9
504,False,1.5,structure_learning,255.982228994,-1,0,-1.0,[],[],images/11.png,11,505,YH,False,2,False,6,3
505,False,1.5,structure_learning,257.487701893,-1,0,-1.0,[],[],images/3.png,13,506,YH,False,2,False,7,5
506,False,1.5,structure_learning,258.993304014,rot,0,1.03323411942,"['left', 'left']","[1.2382900714874268, 1.4271161556243896]",images/7.png,14,507,YH,False,2,False,8,13
507,False,1.5,structure_learning,260.498878002,-1,0,-1.0,[],[],images/3.png,13,508,YH,False,2,False,9,2
508,True,1.5,structure_learning,262.004524946,unrot,0,0.384847164154,"['right', 'left', 'right', 'left', 'left', 'right']","[0.6373591423034668, 0.7640230655670166, 0.8566951751708984, 0.9986300468444824, 1.1874949932098389, 1.382519006729126]",images/6.png,12,509,YH,False,2,False,10,5
509,True,1.5,structure_learning,263.50995183,unrot,0,0.209404945374,"['right', 'left', 'left', 'right']","[0.6049478054046631, 0.731428861618042, 0.968113899230957, 1.2424728870391846]",images/11.png,11,510,YH,True,2,False,11,5
510,True,1.5,structure_learning,265.015457869,rot,90,0.156534194946,"['right', 'right', 'right', 'right']","[0.4472692012786865, 0.94612717628479, 1.2066659927368164, 1.403346061706543]",images/7.png,14,511,YH,True,2,False,12,4
511,False,1.5,structure_learning,266.520697832,unrot,90,0.134550094604,"['right', 'right', 'right', 'left', 'left', 'right']","[0.35515499114990234, 0.5758819580078125, 0.8044390678405762, 1.0979690551757812, 1.342452049255371, 1.4126529693603516]",images/6.png,12,512,YH,True,2,False,13,3
512,False,1.5,structure_learning,268.026234865,rot,0,0.0634529590607,"['right', 'left', 'right', 'left', 'right']","[0.2904658317565918, 0.750546932220459, 0.7512288093566895, 0.9128029346466064, 1.165057897567749]",images/11.png,11,513,YH,False,2,False,14,3
513,False,1.5,structure_learning,269.531847954,rot,0,0.364641904831,"['left', 'right']","[1.0386838912963867, 1.1473309993743896]",images/3.png,13,514,YH,False,2,False,15,6
514,False,1.5,structure_learning,271.03749299,rot,0,0.612818956375,"['right', 'right']","[0.9392299652099609, 1.1755740642547607]",images/4.png,10,515,YH,False,2,False,16,12
515,False,1.5,structure_learning,272.542539835,rot,0,0.0620930194855,"['right', 'right']","[0.8069729804992676, 1.2183310985565186]",images/3.png,13,516,YH,False,2,False,17,2
516,False,1.5,structure_learning,274.048269987,rot,0,0.00223398208618,"['left', 'left', 'left', 'left', 'left']","[0.18296384811401367, 0.3876798152923584, 0.6005849838256836, 0.7973117828369141, 1.001964807510376]",images/6.png,12,517,YH,False,2,False,18,5
517,False,1.5,structure_learning,275.553536892,-1,0,-1.0,[],[],images/7.png,14,518,YH,False,2,False,19,7
518,False,1.5,structure_learning,277.058907986,-1,90,-1.0,[],[],images/11.png,11,519,YH,False,2,False,20,6
519,False,1.5,structure_learning,278.56438303,rot,0,0.770442962646,[],[],images/4.png,10,520,YH,False,2,False,21,5
520,False,1.5,structure_learning,280.069685936,-1,0,-1.0,[],[],images/3.png,13,521,YH,False,2,False,22,5
521,False,1.5,structure_learning,281.574883938,rot,0,0.0401961803436,[],[],images/4.png,10,522,YH,False,2,False,23,2
522,False,1.5,structure_learning,283.080129862,rot,0,1.22013902664,[],[],images/6.png,12,523,YH,False,2,False,24,6
523,False,1.5,structure_learning,284.585484028,-1,90,-1.0,[],[],images/11.png,11,524,YH,False,2,False,25,5
524,False,1.5,structure_learning,286.090651989,rot,0,0.0441439151764,[],[],images/7.png,14,525,YH,False,2,False,26,7
525,False,1.5,structure_learning,287.596061945,rot,0,0.159343957901,[],[],images/3.png,13,526,YH,False,2,False,27,5
526,True,1.5,structure_learning,289.101424932,rot,90,0.210488080978,['right'],[1.3754780292510986],images/4.png,10,527,YH,False,2,False,28,5
527,True,1.5,structure_learning,290.60666585,unrot,0,0.114505052567,"['right', 'left', 'right', 'right', 'right']","[0.4384732246398926, 0.5970251560211182, 0.6738030910491943, 0.9654111862182617, 1.2178380489349365]",images/3.png,13,528,YH,True,2,False,29,2
528,True,1.5,structure_learning,292.112108946,unrot,0,0.0526249408722,"['right', 'right', 'right', 'right']","[0.3844618797302246, 0.8473329544067383, 1.0518739223480225, 1.320307970046997]",images/4.png,10,529,YH,True,2,False,30,2
529,True,1.5,structure_learning,293.617463827,unrot,0,0.0357639789581,"['right', 'right', 'right', 'right', 'right', 'right']","[0.24041104316711426, 0.4451720714569092, 0.6580820083618164, 0.8630831241607666, 1.0756051540374756, 1.2882750034332275]",images/6.png,12,530,YH,True,2,False,31,7
530,True,1.5,structure_learning,295.122612,unrot,0,-0.00107884407043,"['right', 'left', 'left', 'left', 'left', 'left']","[0.2001020908355713, 0.6844439506530762, 0.8416070938110352, 1.0621840953826904, 1.3161931037902832, 1.489104986190796]",images/7.png,14,531,YH,True,2,False,32,6
531,True,1.5,structure_learning,296.628201008,unrot,0,0.184993028641,"['left', 'right', 'left', 'right', 'left', 'right']","[0.39121508598327637, 0.634307861328125, 0.8641479015350342, 1.0833079814910889, 1.2896859645843506, 1.4850189685821533]",images/2.png,0,532,YH,True,0,True,1,50
532,False,1.5,structure_learning,298.135453939,rot,0,0.202343940735,"['right', 'left', 'right', 'right', 'right']","[0.3977169990539551, 0.6434180736541748, 0.8547611236572266, 1.2743289470672607, 1.494866132736206]",images/13.png,3,533,YH,True,0,False,2,52
533,True,1.5,structure_learning,299.640501022,unrot,0,0.186480045319,"['right', 'right', 'right', 'left', 'left', 'left']","[0.3992578983306885, 0.6199820041656494, 0.8328371047973633, 1.0310349464416504, 1.2595069408416748, 1.4404559135437012]",images/5.png,2,534,YH,False,0,False,3,58
534,False,1.5,structure_learning,301.145849943,unrot,90,0.162513017654,"['left', 'right', 'right', 'right']","[0.4322500228881836, 1.1127121448516846, 1.301544189453125, 1.4984261989593506]",images/15.png,1,535,YH,True,0,False,4,56
535,True,1.5,structure_learning,302.650990009,unrot,0,0.170672178268,[],[],images/10.png,4,536,YH,False,0,False,5,61
536,False,1.5,structure_learning,304.159632921,unrot,90,0.0152361392975,"['left', 'right', 'right', 'left']","[0.42050695419311523, 0.767024040222168, 1.3134980201721191, 1.3692359924316406]",images/1.png,5,537,YH,True,1,True,1,66
537,False,1.5,structure_learning,305.665208817,rot,0,0.0732231140137,"['right', 'left', 'right', 'left', 'right']","[0.11005401611328125, 0.4326901435852051, 0.4330930709838867, 0.7092609405517578, 0.9602880477905273]",images/10.png,4,538,YH,False,0,True,1,2
538,False,1.5,structure_learning,307.173411846,rot,0,0.0274498462677,"['right', 'right', 'left', 'right', 'left', 'right', 'left', 'right']","[0.04812192916870117, 0.2840588092803955, 0.6015570163726807, 0.9001739025115967, 1.1851658821105957, 1.185513973236084, 1.420609951019287, 1.4973318576812744]",images/13.png,3,539,YH,False,0,False,2,6
539,False,1.5,structure_learning,308.678629875,unrot,90,0.203668117523,"['left', 'left', 'right', 'left', 'right', 'left', 'right']","[0.2354891300201416, 0.6463019847869873, 0.6673910617828369, 0.9581291675567627, 0.9584770202636719, 1.2111661434173584, 1.2639431953430176]",images/5.png,2,540,YH,False,0,False,3,6
540,False,1.5,structure_learning,310.18462491,rot,0,0.00937390327454,"['right', 'left', 'right', 'right', 'left', 'left', 'right', 'right']","[0.009835958480834961, 0.2623310089111328, 0.2834150791168213, 0.5276739597320557, 0.5754790306091309, 0.794471025466919, 0.7950809001922607, 1.4419589042663574]",images/2.png,0,541,YH,False,0,False,4,9
